ExperimentName,Subject,Session,CatType,Clock.Information,Display.RefreshRate,FamType,Group,Neutral.ACC,Neutral.CRESP,Neutral.RESP,Neutral.RT,Neutral.RTTime,RandomSeed,SessionDate,SessionTime,SessionTimeUtc,Block,Category,Familiarisation,Familiarisation.Cycle,Familiarisation.Sample,Familiarity,FamiliarPosition,Famille,FamNovRatio,Filename,LeftFilename,LeftType,Longueur,Membre,NumLeftLooks,NumLooks,NumRightLooks,Preferences,Preferences.Cycle,Preferences.Sample,Procedure,RightFilename,RightType,Running,Slide1.ACC,Slide1.CRESP,Slide1.RESP,Slide1.RT,Slide1.RTTime,Test,Test.Cycle,Test.Sample,Type
familiarisation unifiée,1,1,Fractales,"<?xml version=""1.0""?>\n<Clock xmlns:dt=""urn:schemas-microsoft-com:datatypes""><Description dt:dt=""string"">E-Prime Primary Realtime Clock</Description><StartTime><Timestamp dt:dt=""int"">0</Timestamp><DateUtc dt:dt=""string"">2015-07-21T20:01:41Z</DateUtc></StartTime><FrequencyChanges><FrequencyChange><Frequency dt:dt=""r8"">3312929</Frequency><Timestamp dt:dt=""r8"">86711767672</Timestamp><Current dt:dt=""r8"">0</Current><DateUtc dt:dt=""string"">2015-07-21T20:01:41Z</DateUtc></FrequencyChange></FrequencyChanges></Clock>\n",60,Courte,1,0,,4,3247,120673,813086691,07-21-2015,16:01:41,20:01:41,1,,2,1,1,,,Fractales,,cat4_10.bmp,,,Courte,,,291,,,,,Fam,,,Familiarisation,,,,,,,,,Mandelbrot
familiarisation unifiée,1,1,Fractales,"<?xml version=""1.0""?>\n<Clock xmlns:dt=""urn:schemas-microsoft-com:datatypes""><Description dt:dt=""string"">E-Prime Primary Realtime Clock</Description><StartTime><Timestamp dt:dt=""int"">0</Timestamp><DateUtc dt:dt=""string"">2015-07-21T20:01:41Z</DateUtc></StartTime><FrequencyChanges><FrequencyChange><Frequency dt:dt=""r8"">3312929</Frequency><Timestamp dt:dt=""r8"">86711767672</Timestamp><Current dt:dt=""r8"">0</Current><DateUtc dt:dt=""string"">2015-07-21T20:01:41Z</DateUtc></FrequencyChange></FrequencyChanges></Clock>\n",60,Courte,1,0,,4,3247,120673,813086691,07-21-2015,16:01:41,20:01:41,2,,5,1,2,,,Fractales,,cat4_6.bmp,,,Courte,,,281,,,,,Fam,,,Familiarisation,,,,,,,,,Mandelbrot
familiarisation unifiée,1,1,Fractales,"<?xml version=""1.0""?>\n<Clock xmlns:dt=""urn:schemas-microsoft-com:datatypes""><Description dt:dt=""string"">E-Prime Primary Realtime Clock</Description><StartTime><Timestamp dt:dt=""int"">0</Timestamp><DateUtc dt:dt=""string"">2015-07-21T20:01:41Z</DateUtc></StartTime><FrequencyChanges><FrequencyChange><Frequency dt:dt=""r8"">3312929</Frequency><Timestamp dt:dt=""r8"">86711767672</Timestamp><Current dt:dt=""r8"">0</Current><DateUtc dt:dt=""string"">2015-07-21T20:01:41Z</DateUtc></FrequencyChange></FrequencyChanges></Clock>\n",60,Courte,1,0,,4,3247,120673,813086691,07-21-2015,16:01:41,20:01:41,3,,4,1,3,,,Fractales,,cat4_15.bmp,,,Courte,,,276,,,,,Fam,,,Familiarisation,,,,,,,,,Mandelbrot
familiarisation unifiée,1,1,Fractales,"<?xml version=""1.0""?>\n<Clock xmlns:dt=""urn:schemas-microsoft-com:datatypes""><Description dt:dt=""string"">E-Prime Primary Realtime Clock</Description><StartTime><Timestamp dt:dt=""int"">0</Timestamp><DateUtc dt:dt=""string"">2015-07-21T20:01:41Z</DateUtc></StartTime><FrequencyChanges><FrequencyChange><Frequency dt:dt=""r8"">3312929</Frequency><Timestamp dt:dt=""r8"">86711767672</Timestamp><Current dt:dt=""r8"">0</Current><DateUtc dt:dt=""string"">2015-07-21T20:01:41Z</DateUtc></FrequencyChange></FrequencyChanges></Clock>\n",60,Courte,1,0,,4,3247,120673,813086691,07-21-2015,16:01:41,20:01:41,4,,3,1,4,,,Fractales,,cat4_8.bmp,,,Courte,,,269,,,,,Fam,,,Familiarisation,,,,,,,,,Mandelbrot
familiarisation unifiée,1,1,Fractales,"<?xml version=""1.0""?>\n<Clock xmlns:dt=""urn:schemas-microsoft-com:datatypes""><Description dt:dt=""string"">E-Prime Primary Realtime Clock</Description><StartTime><Timestamp dt:dt=""int"">0</Timestamp><DateUtc dt:dt=""string"">2015-07-21T20:01:41Z</DateUtc></StartTime><FrequencyChanges><FrequencyChange><Frequency dt:dt=""r8"">3312929</Frequency><Timestamp dt:dt=""r8"">86711767672</Timestamp><Current dt:dt=""r8"">0</Current><DateUtc dt:dt=""string"">2015-07-21T20:01:41Z</DateUtc></FrequencyChange></FrequencyChanges></Clock>\n",60,Courte,1,0,,4,3247,120673,813086691,07-21-2015,16:01:41,20:01:41,5,,1,1,5,,,Fractales,,cat4_9.bmp,,,Courte,,,273,,,,,Fam,,,Familiarisation,,,,,,,,,Mandelbrot
familiarisation unifiée,1,1,Fractales,"<?xml version=""1.0""?>\n<Clock xmlns:dt=""urn:schemas-microsoft-com:datatypes""><Description dt:dt=""string"">E-Prime Primary Realtime Clock</Description><StartTime><Timestamp dt:dt=""int"">0</Timestamp><DateUtc dt:dt=""string"">2015-07-21T20:01:41Z</DateUtc></StartTime><FrequencyChanges><FrequencyChange><Frequency dt:dt=""r8"">3312929</Frequency><Timestamp dt:dt=""r8"">86711767672</Timestamp><Current dt:dt=""r8"">0</Current><DateUtc dt:dt=""string"">2015-07-21T20:01:41Z</DateUtc></FrequencyChange></FrequencyChanges></Clock>\n",60,Courte,1,0,,4,3247,120673,813086691,07-21-2015,16:01:41,20:01:41,6,,,,,,Left,Fractales,1.370689655,,cat4_11.bmp,Mandelbrot,Courte,Mandelbrot,159,,116,,,,Testproc,cat5_4.bmp,Julia,Test,,,,,,3,1,1,
familiarisation unifiée,1,1,Fractales,"<?xml version=""1.0""?>\n<Clock xmlns:dt=""urn:schemas-microsoft-com:datatypes""><Description dt:dt=""string"">E-Prime Primary Realtime Clock</Description><StartTime><Timestamp dt:dt=""int"">0</Timestamp><DateUtc dt:dt=""string"">2015-07-21T20:01:41Z</DateUtc></StartTime><FrequencyChanges><FrequencyChange><Frequency dt:dt=""r8"">3312929</Frequency><Timestamp dt:dt=""r8"">86711767672</Timestamp><Current dt:dt=""r8"">0</Current><DateUtc dt:dt=""string"">2015-07-21T20:01:41Z</DateUtc></FrequencyChange></FrequencyChanges></Clock>\n",60,Courte,1,0,,4,3247,120673,813086691,07-21-2015,16:01:41,20:01:41,7,,,,,,Right,Fractales,0.578616352,,cat5_14.bmp,Julia,Courte,Mandelbrot,159,,92,,,,Testproc,cat4_1.bmp,Mandelbrot,Test,,,,,,6,1,2,
familiarisation unifiée,1,1,Fractales,"<?xml version=""1.0""?>\n<Clock xmlns:dt=""urn:schemas-microsoft-com:datatypes""><Description dt:dt=""string"">E-Prime Primary Realtime Clock</Description><StartTime><Timestamp dt:dt=""int"">0</Timestamp><DateUtc dt:dt=""string"">2015-07-21T20:01:41Z</DateUtc></StartTime><FrequencyChanges><FrequencyChange><Frequency dt:dt=""r8"">3312929</Frequency><Timestamp dt:dt=""r8"">86711767672</Timestamp><Current dt:dt=""r8"">0</Current><DateUtc dt:dt=""string"">2015-07-21T20:01:41Z</DateUtc></FrequencyChange></FrequencyChanges></Clock>\n",60,Courte,1,0,,4,3247,120673,813086691,07-21-2015,16:01:41,20:01:41,8,,,,,,Right,Fractales,2.71875,,cat5_11.bmp,Julia,Courte,Mandelbrot,64,,174,,,,Testproc,cat4_12.bmp,Mandelbrot,Test,,,,,,9,1,3,
familiarisation unifiée,1,1,Fractales,"<?xml version=""1.0""?>\n<Clock xmlns:dt=""urn:schemas-microsoft-com:datatypes""><Description dt:dt=""string"">E-Prime Primary Realtime Clock</Description><StartTime><Timestamp dt:dt=""int"">0</Timestamp><DateUtc dt:dt=""string"">2015-07-21T20:01:41Z</DateUtc></StartTime><FrequencyChanges><FrequencyChange><Frequency dt:dt=""r8"">3312929</Frequency><Timestamp dt:dt=""r8"">86711767672</Timestamp><Current dt:dt=""r8"">0</Current><DateUtc dt:dt=""string"">2015-07-21T20:01:41Z</DateUtc></FrequencyChange></FrequencyChanges></Clock>\n",60,Courte,1,0,,4,3247,120673,813086691,07-21-2015,16:01:41,20:01:41,9,,,,,,Left,Fractales,0.38,,cat4_13.bmp,Mandelbrot,Courte,Mandelbrot,57,,150,,,,Testproc,cat5_15.bmp,Julia,Test,,,,,,5,1,4,
familiarisation unifiée,1,1,Fractales,"<?xml version=""1.0""?>\n<Clock xmlns:dt=""urn:schemas-microsoft-com:datatypes""><Description dt:dt=""string"">E-Prime Primary Realtime Clock</Description><StartTime><Timestamp dt:dt=""int"">0</Timestamp><DateUtc dt:dt=""string"">2015-07-21T20:01:41Z</DateUtc></StartTime><FrequencyChanges><FrequencyChange><Frequency dt:dt=""r8"">3312929</Frequency><Timestamp dt:dt=""r8"">86711767672</Timestamp><Current dt:dt=""r8"">0</Current><DateUtc dt:dt=""string"">2015-07-21T20:01:41Z</DateUtc></FrequencyChange></FrequencyChanges></Clock>\n",60,Courte,1,0,,4,3247,120673,813086691,07-21-2015,16:01:41,20:01:41,10,,,,,,Left,Fractales,0.604316547,,cat4_14.bmp,Mandelbrot,Courte,Mandelbrot,84,,139,,,,Testproc,cat5_10.bmp,Julia,Test,,,,,,2,1,5,
familiarisation unifiée,1,1,Fractales,"<?xml version=""1.0""?>\n<Clock xmlns:dt=""urn:schemas-microsoft-com:datatypes""><Description dt:dt=""string"">E-Prime Primary Realtime Clock</Description><StartTime><Timestamp dt:dt=""int"">0</Timestamp><DateUtc dt:dt=""string"">2015-07-21T20:01:41Z</DateUtc></StartTime><FrequencyChanges><FrequencyChange><Frequency dt:dt=""r8"">3312929</Frequency><Timestamp dt:dt=""r8"">86711767672</Timestamp><Current dt:dt=""r8"">0</Current><DateUtc dt:dt=""string"">2015-07-21T20:01:41Z</DateUtc></FrequencyChange></FrequencyChanges></Clock>\n",60,Courte,1,0,,4,3247,120673,813086691,07-21-2015,16:01:41,20:01:41,11,,,,,,Left,Fractales,0.310160428,,cat4_12.bmp,Mandelbrot,Courte,Mandelbrot,58,,187,,,,Testproc,cat5_11.bmp,Julia,Test,,,,,,4,1,6,
familiarisation unifiée,1,1,Fractales,"<?xml version=""1.0""?>\n<Clock xmlns:dt=""urn:schemas-microsoft-com:datatypes""><Description dt:dt=""string"">E-Prime Primary Realtime Clock</Description><StartTime><Timestamp dt:dt=""int"">0</Timestamp><DateUtc dt:dt=""string"">2015-07-21T20:01:41Z</DateUtc></StartTime><FrequencyChanges><FrequencyChange><Frequency dt:dt=""r8"">3312929</Frequency><Timestamp dt:dt=""r8"">86711767672</Timestamp><Current dt:dt=""r8"">0</Current><DateUtc dt:dt=""string"">2015-07-21T20:01:41Z</DateUtc></FrequencyChange></FrequencyChanges></Clock>\n",60,Courte,1,0,,4,3247,120673,813086691,07-21-2015,16:01:41,20:01:41,12,,,,,,Right,Fractales,2.512820513,,cat5_15.bmp,Julia,Courte,Mandelbrot,78,,196,,,,Testproc,cat4_13.bmp,Mandelbrot,Test,,,,,,10,1,7,
familiarisation unifiée,1,1,Fractales,"<?xml version=""1.0""?>\n<Clock xmlns:dt=""urn:schemas-microsoft-com:datatypes""><Description dt:dt=""string"">E-Prime Primary Realtime Clock</Description><StartTime><Timestamp dt:dt=""int"">0</Timestamp><DateUtc dt:dt=""string"">2015-07-21T20:01:41Z</DateUtc></StartTime><FrequencyChanges><FrequencyChange><Frequency dt:dt=""r8"">3312929</Frequency><Timestamp dt:dt=""r8"">86711767672</Timestamp><Current dt:dt=""r8"">0</Current><DateUtc dt:dt=""string"">2015-07-21T20:01:41Z</DateUtc></FrequencyChange></FrequencyChanges></Clock>\n",60,Courte,1,0,,4,3247,120673,813086691,07-21-2015,16:01:41,20:01:41,13,,,,,,Left,Fractales,0.550724638,,cat4_1.bmp,Mandelbrot,Courte,Mandelbrot,76,,138,,,,Testproc,cat5_14.bmp,Julia,Test,,,,,,1,1,8,
familiarisation unifiée,1,1,Fractales,"<?xml version=""1.0""?>\n<Clock xmlns:dt=""urn:schemas-microsoft-com:datatypes""><Description dt:dt=""string"">E-Prime Primary Realtime Clock</Description><StartTime><Timestamp dt:dt=""int"">0</Timestamp><DateUtc dt:dt=""string"">2015-07-21T20:01:41Z</DateUtc></StartTime><FrequencyChanges><FrequencyChange><Frequency dt:dt=""r8"">3312929</Frequency><Timestamp dt:dt=""r8"">86711767672</Timestamp><Current dt:dt=""r8"">0</Current><DateUtc dt:dt=""string"">2015-07-21T20:01:41Z</DateUtc></FrequencyChange></FrequencyChanges></Clock>\n",60,Courte,1,0,,4,3247,120673,813086691,07-21-2015,16:01:41,20:01:41,14,,,,,,Right,Fractales,1.480519481,,cat5_4.bmp,Julia,Courte,Mandelbrot,77,,114,,,,Testproc,cat4_11.bmp,Mandelbrot,Test,,,,,,8,1,9,
familiarisation unifiée,1,1,Fractales,"<?xml version=""1.0""?>\n<Clock xmlns:dt=""urn:schemas-microsoft-com:datatypes""><Description dt:dt=""string"">E-Prime Primary Realtime Clock</Description><StartTime><Timestamp dt:dt=""int"">0</Timestamp><DateUtc dt:dt=""string"">2015-07-21T20:01:41Z</DateUtc></StartTime><FrequencyChanges><FrequencyChange><Frequency dt:dt=""r8"">3312929</Frequency><Timestamp dt:dt=""r8"">86711767672</Timestamp><Current dt:dt=""r8"">0</Current><DateUtc dt:dt=""string"">2015-07-21T20:01:41Z</DateUtc></FrequencyChange></FrequencyChanges></Clock>\n",60,Courte,1,0,,4,3247,120673,813086691,07-21-2015,16:01:41,20:01:41,15,,,,,,Right,Fractales,2.576271186,,cat5_10.bmp,Julia,Courte,Mandelbrot,59,,152,,,,Testproc,cat4_14.bmp,Mandelbrot,Test,,,,,,7,1,10,
familiarisation unifiée,1,1,Fractales,"<?xml version=""1.0""?>\n<Clock xmlns:dt=""urn:schemas-microsoft-com:datatypes""><Description dt:dt=""string"">E-Prime Primary Realtime Clock</Description><StartTime><Timestamp dt:dt=""int"">0</Timestamp><DateUtc dt:dt=""string"">2015-07-21T20:01:41Z</DateUtc></StartTime><FrequencyChanges><FrequencyChange><Frequency dt:dt=""r8"">3312929</Frequency><Timestamp dt:dt=""r8"">86711767672</Timestamp><Current dt:dt=""r8"">0</Current><DateUtc dt:dt=""string"">2015-07-21T20:01:41Z</DateUtc></FrequencyChange></FrequencyChanges></Clock>\n",60,Courte,1,0,,4,3247,120673,813086691,07-21-2015,16:01:41,20:01:41,16,Novel,,,,Novel,,Fractales,,cat5_1.bmp,,,Courte,Mandelbrot,,,,4,1,1,PrefTest,,,Preferences,0,,6,2434,124193,,,,
familiarisation unifiée,1,1,Fractales,"<?xml version=""1.0""?>\n<Clock xmlns:dt=""urn:schemas-microsoft-com:datatypes""><Description dt:dt=""string"">E-Prime Primary Realtime Clock</Description><StartTime><Timestamp dt:dt=""int"">0</Timestamp><DateUtc dt:dt=""string"">2015-07-21T20:01:41Z</DateUtc></StartTime><FrequencyChanges><FrequencyChange><Frequency dt:dt=""r8"">3312929</Frequency><Timestamp dt:dt=""r8"">86711767672</Timestamp><Current dt:dt=""r8"">0</Current><DateUtc dt:dt=""string"">2015-07-21T20:01:41Z</DateUtc></FrequencyChange></FrequencyChanges></Clock>\n",60,Courte,1,0,,4,3247,120673,813086691,07-21-2015,16:01:41,20:01:41,17,Unknown,,,,Novel,,Fractales,,cat6_3.bmp,,,Courte,Mandelbrot,,,,5,1,2,PrefTest,,,Preferences,0,,7,2829,128105,,,,
familiarisation unifiée,1,1,Fractales,"<?xml version=""1.0""?>\n<Clock xmlns:dt=""urn:schemas-microsoft-com:datatypes""><Description dt:dt=""string"">E-Prime Primary Realtime Clock</Description><StartTime><Timestamp dt:dt=""int"">0</Timestamp><DateUtc dt:dt=""string"">2015-07-21T20:01:41Z</DateUtc></StartTime><FrequencyChanges><FrequencyChange><Frequency dt:dt=""r8"">3312929</Frequency><Timestamp dt:dt=""r8"">86711767672</Timestamp><Current dt:dt=""r8"">0</Current><DateUtc dt:dt=""string"">2015-07-21T20:01:41Z</DateUtc></FrequencyChange></FrequencyChanges></Clock>\n",60,Courte,1,0,,4,3247,120673,813086691,07-21-2015,16:01:41,20:01:41,18,Novel,,,,Familiar,,Fractales,,cat5_14.bmp,,,Courte,Mandelbrot,,,,3,1,3,PrefTest,,,Preferences,0,,8,1784,130960,,,,
familiarisation unifiée,1,1,Fractales,"<?xml version=""1.0""?>\n<Clock xmlns:dt=""urn:schemas-microsoft-com:datatypes""><Description dt:dt=""string"">E-Prime Primary Realtime Clock</Description><StartTime><Timestamp dt:dt=""int"">0</Timestamp><DateUtc dt:dt=""string"">2015-07-21T20:01:41Z</DateUtc></StartTime><FrequencyChanges><FrequencyChange><Frequency dt:dt=""r8"">3312929</Frequency><Timestamp dt:dt=""r8"">86711767672</Timestamp><Current dt:dt=""r8"">0</Current><DateUtc dt:dt=""string"">2015-07-21T20:01:41Z</DateUtc></FrequencyChange></FrequencyChanges></Clock>\n",60,Courte,1,0,,4,3247,120673,813086691,07-21-2015,16:01:41,20:01:41,19,Familiar,,,,Familiar,,Fractales,,cat4_9.bmp,,,Courte,Mandelbrot,,,,1,1,4,PrefTest,,,Preferences,0,,5,2862,134904,,,,
familiarisation unifiée,1,1,Fractales,"<?xml version=""1.0""?>\n<Clock xmlns:dt=""urn:schemas-microsoft-com:datatypes""><Description dt:dt=""string"">E-Prime Primary Realtime Clock</Description><StartTime><Timestamp dt:dt=""int"">0</Timestamp><DateUtc dt:dt=""string"">2015-07-21T20:01:41Z</DateUtc></StartTime><FrequencyChanges><FrequencyChange><Frequency dt:dt=""r8"">3312929</Frequency><Timestamp dt:dt=""r8"">86711767672</Timestamp><Current dt:dt=""r8"">0</Current><DateUtc dt:dt=""string"">2015-07-21T20:01:41Z</DateUtc></FrequencyChange></FrequencyChanges></Clock>\n",60,Courte,1,0,,4,3247,120673,813086691,07-21-2015,16:01:41,20:01:41,20,Familiar,,,,Novel,,Fractales,,cat4_4.bmp,,,Courte,Mandelbrot,,,,2,1,5,PrefTest,,,Preferences,0,,4,3112,139088,,,,
familiarisation unifiée,1,2,Fleurs,"<?xml version=""1.0""?>\n<Clock xmlns:dt=""urn:schemas-microsoft-com:datatypes""><Description dt:dt=""string"">E-Prime Primary Realtime Clock</Description><StartTime><Timestamp dt:dt=""int"">0</Timestamp><DateUtc dt:dt=""string"">2015-07-21T20:04:24Z</DateUtc></StartTime><FrequencyChanges><FrequencyChange><Frequency dt:dt=""r8"">3312929</Frequency><Timestamp dt:dt=""r8"">87250617099</Timestamp><Current dt:dt=""r8"">0</Current><DateUtc dt:dt=""string"">2015-07-21T20:04:24Z</DateUtc></FrequencyChange></FrequencyChanges></Clock>\n",60,Longue,1,0,,4,1900,165876,1351919045,07-21-2015,16:04:24,20:04:24,1,,1,1,1,,,Fleurs,,cat2_4.bmp,,,Longue,,,282,,,,,Fam,,,Familiarisation,,,,,,,,,Alata
familiarisation unifiée,1,2,Fleurs,"<?xml version=""1.0""?>\n<Clock xmlns:dt=""urn:schemas-microsoft-com:datatypes""><Description dt:dt=""string"">E-Prime Primary Realtime Clock</Description><StartTime><Timestamp dt:dt=""int"">0</Timestamp><DateUtc dt:dt=""string"">2015-07-21T20:04:24Z</DateUtc></StartTime><FrequencyChanges><FrequencyChange><Frequency dt:dt=""r8"">3312929</Frequency><Timestamp dt:dt=""r8"">87250617099</Timestamp><Current dt:dt=""r8"">0</Current><DateUtc dt:dt=""string"">2015-07-21T20:04:24Z</DateUtc></FrequencyChange></FrequencyChanges></Clock>\n",60,Longue,1,0,,4,1900,165876,1351919045,07-21-2015,16:04:24,20:04:24,2,,4,1,2,,,Fleurs,,cat2_8.bmp,,,Longue,,,274,,,,,Fam,,,Familiarisation,,,,,,,,,Alata
familiarisation unifiée,1,2,Fleurs,"<?xml version=""1.0""?>\n<Clock xmlns:dt=""urn:schemas-microsoft-com:datatypes""><Description dt:dt=""string"">E-Prime Primary Realtime Clock</Description><StartTime><Timestamp dt:dt=""int"">0</Timestamp><DateUtc dt:dt=""string"">2015-07-21T20:04:24Z</DateUtc></StartTime><FrequencyChanges><FrequencyChange><Frequency dt:dt=""r8"">3312929</Frequency><Timestamp dt:dt=""r8"">87250617099</Timestamp><Current dt:dt=""r8"">0</Current><DateUtc dt:dt=""string"">2015-07-21T20:04:24Z</DateUtc></FrequencyChange></FrequencyChanges></Clock>\n",60,Longue,1,0,,4,1900,165876,1351919045,07-21-2015,16:04:24,20:04:24,3,,2,1,3,,,Fleurs,,cat2_6.bmp,,,Longue,,,274,,,,,Fam,,,Familiarisation,,,,,,,,,Alata
familiarisation unifiée,1,2,Fleurs,"<?xml version=""1.0""?>\n<Clock xmlns:dt=""urn:schemas-microsoft-com:datatypes""><Description dt:dt=""string"">E-Prime Primary Realtime Clock</Description><StartTime><Timestamp dt:dt=""int"">0</Timestamp><DateUtc dt:dt=""string"">2015-07-21T20:04:24Z</DateUtc></StartTime><FrequencyChanges><FrequencyChange><Frequency dt:dt=""r8"">3312929</Frequency><Timestamp dt:dt=""r8"">87250617099</Timestamp><Current dt:dt=""r8"">0</Current><DateUtc dt:dt=""string"">2015-07-21T20:04:24Z</DateUtc></FrequencyChange></FrequencyChanges></Clock>\n",60,Longue,1,0,,4,1900,165876,1351919045,07-21-2015,16:04:24,20:04:24,4,,5,1,4,,,Fleurs,,cat2_13.bmp,,,Longue,,,278,,,,,Fam,,,Familiarisation,,,,,,,,,Alata
familiarisation unifiée,1,2,Fleurs,"<?xml version=""1.0""?>\n<Clock xmlns:dt=""urn:schemas-microsoft-com:datatypes""><Description dt:dt=""string"">E-Prime Primary Realtime Clock</Description><StartTime><Timestamp dt:dt=""int"">0</Timestamp><DateUtc dt:dt=""string"">2015-07-21T20:04:24Z</DateUtc></StartTime><FrequencyChanges><FrequencyChange><Frequency dt:dt=""r8"">3312929</Frequency><Timestamp dt:dt=""r8"">87250617099</Timestamp><Current dt:dt=""r8"">0</Current><DateUtc dt:dt=""string"">2015-07-21T20:04:24Z</DateUtc></FrequencyChange></FrequencyChanges></Clock>\n",60,Longue,1,0,,4,1900,165876,1351919045,07-21-2015,16:04:24,20:04:24,5,,3,1,5,,,Fleurs,,cat2_5.bmp,,,Longue,,,303,,,,,Fam,,,Familiarisation,,,,,,,,,Alata
familiarisation unifiée,1,2,Fleurs,"<?xml version=""1.0""?>\n<Clock xmlns:dt=""urn:schemas-microsoft-com:datatypes""><Description dt:dt=""string"">E-Prime Primary Realtime Clock</Description><StartTime><Timestamp dt:dt=""int"">0</Timestamp><DateUtc dt:dt=""string"">2015-07-21T20:04:24Z</DateUtc></StartTime><FrequencyChanges><FrequencyChange><Frequency dt:dt=""r8"">3312929</Frequency><Timestamp dt:dt=""r8"">87250617099</Timestamp><Current dt:dt=""r8"">0</Current><DateUtc dt:dt=""string"">2015-07-21T20:04:24Z</DateUtc></FrequencyChange></FrequencyChanges></Clock>\n",60,Longue,1,0,,4,1900,165876,1351919045,07-21-2015,16:04:24,20:04:24,6,,5,2,6,,,Fleurs,,cat2_13.bmp,,,Longue,,,331,,,,,Fam,,,Familiarisation,,,,,,,,,Alata
familiarisation unifiée,1,2,Fleurs,"<?xml version=""1.0""?>\n<Clock xmlns:dt=""urn:schemas-microsoft-com:datatypes""><Description dt:dt=""string"">E-Prime Primary Realtime Clock</Description><StartTime><Timestamp dt:dt=""int"">0</Timestamp><DateUtc dt:dt=""string"">2015-07-21T20:04:24Z</DateUtc></StartTime><FrequencyChanges><FrequencyChange><Frequency dt:dt=""r8"">3312929</Frequency><Timestamp dt:dt=""r8"">87250617099</Timestamp><Current dt:dt=""r8"">0</Current><DateUtc dt:dt=""string"">2015-07-21T20:04:24Z</DateUtc></FrequencyChange></FrequencyChanges></Clock>\n",60,Longue,1,0,,4,1900,165876,1351919045,07-21-2015,16:04:24,20:04:24,7,,1,2,7,,,Fleurs,,cat2_4.bmp,,,Longue,,,249,,,,,Fam,,,Familiarisation,,,,,,,,,Alata
familiarisation unifiée,1,2,Fleurs,"<?xml version=""1.0""?>\n<Clock xmlns:dt=""urn:schemas-microsoft-com:datatypes""><Description dt:dt=""string"">E-Prime Primary Realtime Clock</Description><StartTime><Timestamp dt:dt=""int"">0</Timestamp><DateUtc dt:dt=""string"">2015-07-21T20:04:24Z</DateUtc></StartTime><FrequencyChanges><FrequencyChange><Frequency dt:dt=""r8"">3312929</Frequency><Timestamp dt:dt=""r8"">87250617099</Timestamp><Current dt:dt=""r8"">0</Current><DateUtc dt:dt=""string"">2015-07-21T20:04:24Z</DateUtc></FrequencyChange></FrequencyChanges></Clock>\n",60,Longue,1,0,,4,1900,165876,1351919045,07-21-2015,16:04:24,20:04:24,8,,3,2,8,,,Fleurs,,cat2_5.bmp,,,Longue,,,262,,,,,Fam,,,Familiarisation,,,,,,,,,Alata
familiarisation unifiée,1,2,Fleurs,"<?xml version=""1.0""?>\n<Clock xmlns:dt=""urn:schemas-microsoft-com:datatypes""><Description dt:dt=""string"">E-Prime Primary Realtime Clock</Description><StartTime><Timestamp dt:dt=""int"">0</Timestamp><DateUtc dt:dt=""string"">2015-07-21T20:04:24Z</DateUtc></StartTime><FrequencyChanges><FrequencyChange><Frequency dt:dt=""r8"">3312929</Frequency><Timestamp dt:dt=""r8"">87250617099</Timestamp><Current dt:dt=""r8"">0</Current><DateUtc dt:dt=""string"">2015-07-21T20:04:24Z</DateUtc></FrequencyChange></FrequencyChanges></Clock>\n",60,Longue,1,0,,4,1900,165876,1351919045,07-21-2015,16:04:24,20:04:24,9,,4,2,9,,,Fleurs,,cat2_8.bmp,,,Longue,,,289,,,,,Fam,,,Familiarisation,,,,,,,,,Alata
familiarisation unifiée,1,2,Fleurs,"<?xml version=""1.0""?>\n<Clock xmlns:dt=""urn:schemas-microsoft-com:datatypes""><Description dt:dt=""string"">E-Prime Primary Realtime Clock</Description><StartTime><Timestamp dt:dt=""int"">0</Timestamp><DateUtc dt:dt=""string"">2015-07-21T20:04:24Z</DateUtc></StartTime><FrequencyChanges><FrequencyChange><Frequency dt:dt=""r8"">3312929</Frequency><Timestamp dt:dt=""r8"">87250617099</Timestamp><Current dt:dt=""r8"">0</Current><DateUtc dt:dt=""string"">2015-07-21T20:04:24Z</DateUtc></FrequencyChange></FrequencyChanges></Clock>\n",60,Longue,1,0,,4,1900,165876,1351919045,07-21-2015,16:04:24,20:04:24,10,,2,2,10,,,Fleurs,,cat2_6.bmp,,,Longue,,,256,,,,,Fam,,,Familiarisation,,,,,,,,,Alata
familiarisation unifiée,1,2,Fleurs,"<?xml version=""1.0""?>\n<Clock xmlns:dt=""urn:schemas-microsoft-com:datatypes""><Description dt:dt=""string"">E-Prime Primary Realtime Clock</Description><StartTime><Timestamp dt:dt=""int"">0</Timestamp><DateUtc dt:dt=""string"">2015-07-21T20:04:24Z</DateUtc></StartTime><FrequencyChanges><FrequencyChange><Frequency dt:dt=""r8"">3312929</Frequency><Timestamp dt:dt=""r8"">87250617099</Timestamp><Current dt:dt=""r8"">0</Current><DateUtc dt:dt=""string"">2015-07-21T20:04:24Z</DateUtc></FrequencyChange></FrequencyChanges></Clock>\n",60,Longue,1,0,,4,1900,165876,1351919045,07-21-2015,16:04:24,20:04:24,11,,3,3,11,,,Fleurs,,cat2_5.bmp,,,Longue,,,288,,,,,Fam,,,Familiarisation,,,,,,,,,Alata
familiarisation unifiée,1,2,Fleurs,"<?xml version=""1.0""?>\n<Clock xmlns:dt=""urn:schemas-microsoft-com:datatypes""><Description dt:dt=""string"">E-Prime Primary Realtime Clock</Description><StartTime><Timestamp dt:dt=""int"">0</Timestamp><DateUtc dt:dt=""string"">2015-07-21T20:04:24Z</DateUtc></StartTime><FrequencyChanges><FrequencyChange><Frequency dt:dt=""r8"">3312929</Frequency><Timestamp dt:dt=""r8"">87250617099</Timestamp><Current dt:dt=""r8"">0</Current><DateUtc dt:dt=""string"">2015-07-21T20:04:24Z</DateUtc></FrequencyChange></FrequencyChanges></Clock>\n",60,Longue,1,0,,4,1900,165876,1351919045,07-21-2015,16:04:24,20:04:24,12,,5,3,12,,,Fleurs,,cat2_13.bmp,,,Longue,,,270,,,,,Fam,,,Familiarisation,,,,,,,,,Alata
familiarisation unifiée,1,2,Fleurs,"<?xml version=""1.0""?>\n<Clock xmlns:dt=""urn:schemas-microsoft-com:datatypes""><Description dt:dt=""string"">E-Prime Primary Realtime Clock</Description><StartTime><Timestamp dt:dt=""int"">0</Timestamp><DateUtc dt:dt=""string"">2015-07-21T20:04:24Z</DateUtc></StartTime><FrequencyChanges><FrequencyChange><Frequency dt:dt=""r8"">3312929</Frequency><Timestamp dt:dt=""r8"">87250617099</Timestamp><Current dt:dt=""r8"">0</Current><DateUtc dt:dt=""string"">2015-07-21T20:04:24Z</DateUtc></FrequencyChange></FrequencyChanges></Clock>\n",60,Longue,1,0,,4,1900,165876,1351919045,07-21-2015,16:04:24,20:04:24,13,,1,3,13,,,Fleurs,,cat2_4.bmp,,,Longue,,,220,,,,,Fam,,,Familiarisation,,,,,,,,,Alata
familiarisation unifiée,1,2,Fleurs,"<?xml version=""1.0""?>\n<Clock xmlns:dt=""urn:schemas-microsoft-com:datatypes""><Description dt:dt=""string"">E-Prime Primary Realtime Clock</Description><StartTime><Timestamp dt:dt=""int"">0</Timestamp><DateUtc dt:dt=""string"">2015-07-21T20:04:24Z</DateUtc></StartTime><FrequencyChanges><FrequencyChange><Frequency dt:dt=""r8"">3312929</Frequency><Timestamp dt:dt=""r8"">87250617099</Timestamp><Current dt:dt=""r8"">0</Current><DateUtc dt:dt=""string"">2015-07-21T20:04:24Z</DateUtc></FrequencyChange></FrequencyChanges></Clock>\n",60,Longue,1,0,,4,1900,165876,1351919045,07-21-2015,16:04:24,20:04:24,14,,2,3,14,,,Fleurs,,cat2_6.bmp,,,Longue,,,252,,,,,Fam,,,Familiarisation,,,,,,,,,Alata
familiarisation unifiée,1,2,Fleurs,"<?xml version=""1.0""?>\n<Clock xmlns:dt=""urn:schemas-microsoft-com:datatypes""><Description dt:dt=""string"">E-Prime Primary Realtime Clock</Description><StartTime><Timestamp dt:dt=""int"">0</Timestamp><DateUtc dt:dt=""string"">2015-07-21T20:04:24Z</DateUtc></StartTime><FrequencyChanges><FrequencyChange><Frequency dt:dt=""r8"">3312929</Frequency><Timestamp dt:dt=""r8"">87250617099</Timestamp><Current dt:dt=""r8"">0</Current><DateUtc dt:dt=""string"">2015-07-21T20:04:24Z</DateUtc></FrequencyChange></FrequencyChanges></Clock>\n",60,Longue,1,0,,4,1900,165876,1351919045,07-21-2015,16:04:24,20:04:24,15,,4,3,15,,,Fleurs,,cat2_8.bmp,,,Longue,,,245,,,,,Fam,,,Familiarisation,,,,,,,,,Alata
familiarisation unifiée,1,2,Fleurs,"<?xml version=""1.0""?>\n<Clock xmlns:dt=""urn:schemas-microsoft-com:datatypes""><Description dt:dt=""string"">E-Prime Primary Realtime Clock</Description><StartTime><Timestamp dt:dt=""int"">0</Timestamp><DateUtc dt:dt=""string"">2015-07-21T20:04:24Z</DateUtc></StartTime><FrequencyChanges><FrequencyChange><Frequency dt:dt=""r8"">3312929</Frequency><Timestamp dt:dt=""r8"">87250617099</Timestamp><Current dt:dt=""r8"">0</Current><DateUtc dt:dt=""string"">2015-07-21T20:04:24Z</DateUtc></FrequencyChange></FrequencyChanges></Clock>\n",60,Longue,1,0,,4,1900,165876,1351919045,07-21-2015,16:04:24,20:04:24,16,,,,,,Left,Fleurs,0.737226277,,cat2_10.bmp,Alata,Longue,Alata,101,,137,,,,Testproc,cat1_7.bmp,PurpleHaze,Test,,,,,,5,1,1,
familiarisation unifiée,1,2,Fleurs,"<?xml version=""1.0""?>\n<Clock xmlns:dt=""urn:schemas-microsoft-com:datatypes""><Description dt:dt=""string"">E-Prime Primary Realtime Clock</Description><StartTime><Timestamp dt:dt=""int"">0</Timestamp><DateUtc dt:dt=""string"">2015-07-21T20:04:24Z</DateUtc></StartTime><FrequencyChanges><FrequencyChange><Frequency dt:dt=""r8"">3312929</Frequency><Timestamp dt:dt=""r8"">87250617099</Timestamp><Current dt:dt=""r8"">0</Current><DateUtc dt:dt=""string"">2015-07-21T20:04:24Z</DateUtc></FrequencyChange></FrequencyChanges></Clock>\n",60,Longue,1,0,,4,1900,165876,1351919045,07-21-2015,16:04:24,20:04:24,17,,,,,,Right,Fleurs,1.831460674,,cat1_11.bmp,PurpleHaze,Longue,Alata,89,,163,,,,Testproc,cat2_15.bmp,Alata,Test,,,,,,9,1,2,
familiarisation unifiée,1,2,Fleurs,"<?xml version=""1.0""?>\n<Clock xmlns:dt=""urn:schemas-microsoft-com:datatypes""><Description dt:dt=""string"">E-Prime Primary Realtime Clock</Description><StartTime><Timestamp dt:dt=""int"">0</Timestamp><DateUtc dt:dt=""string"">2015-07-21T20:04:24Z</DateUtc></StartTime><FrequencyChanges><FrequencyChange><Frequency dt:dt=""r8"">3312929</Frequency><Timestamp dt:dt=""r8"">87250617099</Timestamp><Current dt:dt=""r8"">0</Current><DateUtc dt:dt=""string"">2015-07-21T20:04:24Z</DateUtc></FrequencyChange></FrequencyChanges></Clock>\n",60,Longue,1,0,,4,1900,165876,1351919045,07-21-2015,16:04:24,20:04:24,18,,,,,,Left,Fleurs,0.361809045,,cat2_11.bmp,Alata,Longue,Alata,72,,199,,,,Testproc,cat1_15.bmp,PurpleHaze,Test,,,,,,1,1,3,
familiarisation unifiée,1,2,Fleurs,"<?xml version=""1.0""?>\n<Clock xmlns:dt=""urn:schemas-microsoft-com:datatypes""><Description dt:dt=""string"">E-Prime Primary Realtime Clock</Description><StartTime><Timestamp dt:dt=""int"">0</Timestamp><DateUtc dt:dt=""string"">2015-07-21T20:04:24Z</DateUtc></StartTime><FrequencyChanges><FrequencyChange><Frequency dt:dt=""r8"">3312929</Frequency><Timestamp dt:dt=""r8"">87250617099</Timestamp><Current dt:dt=""r8"">0</Current><DateUtc dt:dt=""string"">2015-07-21T20:04:24Z</DateUtc></FrequencyChange></FrequencyChanges></Clock>\n",60,Longue,1,0,,4,1900,165876,1351919045,07-21-2015,16:04:24,20:04:24,19,,,,,,Right,Fleurs,0.786259542,,cat1_15.bmp,PurpleHaze,Longue,Alata,131,,103,,,,Testproc,cat2_11.bmp,Alata,Test,,,,,,6,1,4,
familiarisation unifiée,1,2,Fleurs,"<?xml version=""1.0""?>\n<Clock xmlns:dt=""urn:schemas-microsoft-com:datatypes""><Description dt:dt=""string"">E-Prime Primary Realtime Clock</Description><StartTime><Timestamp dt:dt=""int"">0</Timestamp><DateUtc dt:dt=""string"">2015-07-21T20:04:24Z</DateUtc></StartTime><FrequencyChanges><FrequencyChange><Frequency dt:dt=""r8"">3312929</Frequency><Timestamp dt:dt=""r8"">87250617099</Timestamp><Current dt:dt=""r8"">0</Current><DateUtc dt:dt=""string"">2015-07-21T20:04:24Z</DateUtc></FrequencyChange></FrequencyChanges></Clock>\n",60,Longue,1,0,,4,1900,165876,1351919045,07-21-2015,16:04:24,20:04:24,20,,,,,,Right,Fleurs,0.598591549,,cat1_6.bmp,PurpleHaze,Longue,Alata,142,,85,,,,Testproc,cat2_14.bmp,Alata,Test,,,,,,8,1,5,
familiarisation unifiée,1,2,Fleurs,"<?xml version=""1.0""?>\n<Clock xmlns:dt=""urn:schemas-microsoft-com:datatypes""><Description dt:dt=""string"">E-Prime Primary Realtime Clock</Description><StartTime><Timestamp dt:dt=""int"">0</Timestamp><DateUtc dt:dt=""string"">2015-07-21T20:04:24Z</DateUtc></StartTime><FrequencyChanges><FrequencyChange><Frequency dt:dt=""r8"">3312929</Frequency><Timestamp dt:dt=""r8"">87250617099</Timestamp><Current dt:dt=""r8"">0</Current><DateUtc dt:dt=""string"">2015-07-21T20:04:24Z</DateUtc></FrequencyChange></FrequencyChanges></Clock>\n",60,Longue,1,0,,4,1900,165876,1351919045,07-21-2015,16:04:24,20:04:24,21,,,,,,Left,Fleurs,0.724137931,,cat2_14.bmp,Alata,Longue,Alata,105,,145,,,,Testproc,cat1_6.bmp,PurpleHaze,Test,,,,,,3,1,6,
familiarisation unifiée,1,2,Fleurs,"<?xml version=""1.0""?>\n<Clock xmlns:dt=""urn:schemas-microsoft-com:datatypes""><Description dt:dt=""string"">E-Prime Primary Realtime Clock</Description><StartTime><Timestamp dt:dt=""int"">0</Timestamp><DateUtc dt:dt=""string"">2015-07-21T20:04:24Z</DateUtc></StartTime><FrequencyChanges><FrequencyChange><Frequency dt:dt=""r8"">3312929</Frequency><Timestamp dt:dt=""r8"">87250617099</Timestamp><Current dt:dt=""r8"">0</Current><DateUtc dt:dt=""string"">2015-07-21T20:04:24Z</DateUtc></FrequencyChange></FrequencyChanges></Clock>\n",60,Longue,1,0,,4,1900,165876,1351919045,07-21-2015,16:04:24,20:04:24,22,,,,,,Left,Fleurs,0.446043165,,cat2_3.bmp,Alata,Longue,Alata,62,,139,,,,Testproc,cat1_5.bmp,PurpleHaze,Test,,,,,,2,1,7,
familiarisation unifiée,1,2,Fleurs,"<?xml version=""1.0""?>\n<Clock xmlns:dt=""urn:schemas-microsoft-com:datatypes""><Description dt:dt=""string"">E-Prime Primary Realtime Clock</Description><StartTime><Timestamp dt:dt=""int"">0</Timestamp><DateUtc dt:dt=""string"">2015-07-21T20:04:24Z</DateUtc></StartTime><FrequencyChanges><FrequencyChange><Frequency dt:dt=""r8"">3312929</Frequency><Timestamp dt:dt=""r8"">87250617099</Timestamp><Current dt:dt=""r8"">0</Current><DateUtc dt:dt=""string"">2015-07-21T20:04:24Z</DateUtc></FrequencyChange></FrequencyChanges></Clock>\n",60,Longue,1,0,,4,1900,165876,1351919045,07-21-2015,16:04:24,20:04:24,23,,,,,,Right,Fleurs,7.615384615,,cat1_7.bmp,PurpleHaze,Longue,Alata,26,,198,,,,Testproc,cat2_10.bmp,Alata,Test,,,,,,10,1,8,
familiarisation unifiée,1,2,Fleurs,"<?xml version=""1.0""?>\n<Clock xmlns:dt=""urn:schemas-microsoft-com:datatypes""><Description dt:dt=""string"">E-Prime Primary Realtime Clock</Description><StartTime><Timestamp dt:dt=""int"">0</Timestamp><DateUtc dt:dt=""string"">2015-07-21T20:04:24Z</DateUtc></StartTime><FrequencyChanges><FrequencyChange><Frequency dt:dt=""r8"">3312929</Frequency><Timestamp dt:dt=""r8"">87250617099</Timestamp><Current dt:dt=""r8"">0</Current><DateUtc dt:dt=""string"">2015-07-21T20:04:24Z</DateUtc></FrequencyChange></FrequencyChanges></Clock>\n",60,Longue,1,0,,4,1900,165876,1351919045,07-21-2015,16:04:24,20:04:24,24,,,,,,Right,Fleurs,0.671052632,,cat1_5.bmp,PurpleHaze,Longue,Alata,152,,102,,,,Testproc,cat2_3.bmp,Alata,Test,,,,,,7,1,9,
familiarisation unifiée,1,2,Fleurs,"<?xml version=""1.0""?>\n<Clock xmlns:dt=""urn:schemas-microsoft-com:datatypes""><Description dt:dt=""string"">E-Prime Primary Realtime Clock</Description><StartTime><Timestamp dt:dt=""int"">0</Timestamp><DateUtc dt:dt=""string"">2015-07-21T20:04:24Z</DateUtc></StartTime><FrequencyChanges><FrequencyChange><Frequency dt:dt=""r8"">3312929</Frequency><Timestamp dt:dt=""r8"">87250617099</Timestamp><Current dt:dt=""r8"">0</Current><DateUtc dt:dt=""string"">2015-07-21T20:04:24Z</DateUtc></FrequencyChange></FrequencyChanges></Clock>\n",60,Longue,1,0,,4,1900,165876,1351919045,07-21-2015,16:04:24,20:04:24,25,,,,,,Left,Fleurs,0.269607843,,cat2_15.bmp,Alata,Longue,Alata,55,,204,,,,Testproc,cat1_11.bmp,PurpleHaze,Test,,,,,,4,1,10,
familiarisation unifiée,1,2,Fleurs,"<?xml version=""1.0""?>\n<Clock xmlns:dt=""urn:schemas-microsoft-com:datatypes""><Description dt:dt=""string"">E-Prime Primary Realtime Clock</Description><StartTime><Timestamp dt:dt=""int"">0</Timestamp><DateUtc dt:dt=""string"">2015-07-21T20:04:24Z</DateUtc></StartTime><FrequencyChanges><FrequencyChange><Frequency dt:dt=""r8"">3312929</Frequency><Timestamp dt:dt=""r8"">87250617099</Timestamp><Current dt:dt=""r8"">0</Current><DateUtc dt:dt=""string"">2015-07-21T20:04:24Z</DateUtc></FrequencyChange></FrequencyChanges></Clock>\n",60,Longue,1,0,,4,1900,165876,1351919045,07-21-2015,16:04:24,20:04:24,26,Novel,,,,Familiar,,Fleurs,,cat1_15.bmp,,,Longue,Alata,,,,3,1,1,PrefTest,,,Preferences,0,,4,2005,168964,,,,
familiarisation unifiée,1,2,Fleurs,"<?xml version=""1.0""?>\n<Clock xmlns:dt=""urn:schemas-microsoft-com:datatypes""><Description dt:dt=""string"">E-Prime Primary Realtime Clock</Description><StartTime><Timestamp dt:dt=""int"">0</Timestamp><DateUtc dt:dt=""string"">2015-07-21T20:04:24Z</DateUtc></StartTime><FrequencyChanges><FrequencyChange><Frequency dt:dt=""r8"">3312929</Frequency><Timestamp dt:dt=""r8"">87250617099</Timestamp><Current dt:dt=""r8"">0</Current><DateUtc dt:dt=""string"">2015-07-21T20:04:24Z</DateUtc></FrequencyChange></FrequencyChanges></Clock>\n",60,Longue,1,0,,4,1900,165876,1351919045,07-21-2015,16:04:24,20:04:24,27,Unknown,,,,Novel,,Fleurs,,cat3_4.bmp,,,Longue,Alata,,,,5,1,2,PrefTest,,,Preferences,0,,6,3161,173220,,,,
familiarisation unifiée,1,2,Fleurs,"<?xml version=""1.0""?>\n<Clock xmlns:dt=""urn:schemas-microsoft-com:datatypes""><Description dt:dt=""string"">E-Prime Primary Realtime Clock</Description><StartTime><Timestamp dt:dt=""int"">0</Timestamp><DateUtc dt:dt=""string"">2015-07-21T20:04:24Z</DateUtc></StartTime><FrequencyChanges><FrequencyChange><Frequency dt:dt=""r8"">3312929</Frequency><Timestamp dt:dt=""r8"">87250617099</Timestamp><Current dt:dt=""r8"">0</Current><DateUtc dt:dt=""string"">2015-07-21T20:04:24Z</DateUtc></FrequencyChange></FrequencyChanges></Clock>\n",60,Longue,1,0,,4,1900,165876,1351919045,07-21-2015,16:04:24,20:04:24,28,Familiar,,,,Novel,,Fleurs,,cat2_7.bmp,,,Longue,Alata,,,,2,1,3,PrefTest,,,Preferences,0,,4,2255,176548,,,,
familiarisation unifiée,1,2,Fleurs,"<?xml version=""1.0""?>\n<Clock xmlns:dt=""urn:schemas-microsoft-com:datatypes""><Description dt:dt=""string"">E-Prime Primary Realtime Clock</Description><StartTime><Timestamp dt:dt=""int"">0</Timestamp><DateUtc dt:dt=""string"">2015-07-21T20:04:24Z</DateUtc></StartTime><FrequencyChanges><FrequencyChange><Frequency dt:dt=""r8"">3312929</Frequency><Timestamp dt:dt=""r8"">87250617099</Timestamp><Current dt:dt=""r8"">0</Current><DateUtc dt:dt=""string"">2015-07-21T20:04:24Z</DateUtc></FrequencyChange></FrequencyChanges></Clock>\n",60,Longue,1,0,,4,1900,165876,1351919045,07-21-2015,16:04:24,20:04:24,29,Familiar,,,,Familiar,,Fleurs,,cat2_4.bmp,,,Longue,Alata,,,,1,1,4,PrefTest,,,Preferences,0,,8,1593,179219,,,,
familiarisation unifiée,1,2,Fleurs,"<?xml version=""1.0""?>\n<Clock xmlns:dt=""urn:schemas-microsoft-com:datatypes""><Description dt:dt=""string"">E-Prime Primary Realtime Clock</Description><StartTime><Timestamp dt:dt=""int"">0</Timestamp><DateUtc dt:dt=""string"">2015-07-21T20:04:24Z</DateUtc></StartTime><FrequencyChanges><FrequencyChange><Frequency dt:dt=""r8"">3312929</Frequency><Timestamp dt:dt=""r8"">87250617099</Timestamp><Current dt:dt=""r8"">0</Current><DateUtc dt:dt=""string"">2015-07-21T20:04:24Z</DateUtc></FrequencyChange></FrequencyChanges></Clock>\n",60,Longue,1,0,,4,1900,165876,1351919045,07-21-2015,16:04:24,20:04:24,30,Novel,,,,Novel,,Fleurs,,cat1_13.bmp,,,Longue,Alata,,,,4,1,5,PrefTest,,,Preferences,0,,6,3534,183827,,,,
familiarisation unifiée,2,1,Fleurs,"<?xml version=""1.0""?>\n<Clock xmlns:dt=""urn:schemas-microsoft-com:datatypes""><Description dt:dt=""string"">E-Prime Primary Realtime Clock</Description><StartTime><Timestamp dt:dt=""int"">0</Timestamp><DateUtc dt:dt=""string"">2015-07-21T19:50:46Z</DateUtc></StartTime><FrequencyChanges><FrequencyChange><Frequency dt:dt=""r8"">3312929</Frequency><Timestamp dt:dt=""r8"">84540094820</Timestamp><Current dt:dt=""r8"">0</Current><DateUtc dt:dt=""string"">2015-07-21T19:50:46Z</DateUtc></FrequencyChange></FrequencyChanges></Clock>\n",60,Courte,1,0,,3,6293,116564,-1358581031,07-21-2015,15:50:46,19:50:46,1,,4,1,1,,,Fleurs,,cat1_14.bmp,,,Courte,,,280,,,,,Fam,,,Familiarisation,,,,,,,,,PurpleHaze
familiarisation unifiée,2,1,Fleurs,"<?xml version=""1.0""?>\n<Clock xmlns:dt=""urn:schemas-microsoft-com:datatypes""><Description dt:dt=""string"">E-Prime Primary Realtime Clock</Description><StartTime><Timestamp dt:dt=""int"">0</Timestamp><DateUtc dt:dt=""string"">2015-07-21T19:50:46Z</DateUtc></StartTime><FrequencyChanges><FrequencyChange><Frequency dt:dt=""r8"">3312929</Frequency><Timestamp dt:dt=""r8"">84540094820</Timestamp><Current dt:dt=""r8"">0</Current><DateUtc dt:dt=""string"">2015-07-21T19:50:46Z</DateUtc></FrequencyChange></FrequencyChanges></Clock>\n",60,Courte,1,0,,3,6293,116564,-1358581031,07-21-2015,15:50:46,19:50:46,2,,2,1,2,,,Fleurs,,cat1_9.bmp,,,Courte,,,298,,,,,Fam,,,Familiarisation,,,,,,,,,PurpleHaze
familiarisation unifiée,2,1,Fleurs,"<?xml version=""1.0""?>\n<Clock xmlns:dt=""urn:schemas-microsoft-com:datatypes""><Description dt:dt=""string"">E-Prime Primary Realtime Clock</Description><StartTime><Timestamp dt:dt=""int"">0</Timestamp><DateUtc dt:dt=""string"">2015-07-21T19:50:46Z</DateUtc></StartTime><FrequencyChanges><FrequencyChange><Frequency dt:dt=""r8"">3312929</Frequency><Timestamp dt:dt=""r8"">84540094820</Timestamp><Current dt:dt=""r8"">0</Current><DateUtc dt:dt=""string"">2015-07-21T19:50:46Z</DateUtc></FrequencyChange></FrequencyChanges></Clock>\n",60,Courte,1,0,,3,6293,116564,-1358581031,07-21-2015,15:50:46,19:50:46,3,,5,1,3,,,Fleurs,,cat1_5.bmp,,,Courte,,,105,,,,,Fam,,,Familiarisation,,,,,,,,,PurpleHaze
familiarisation unifiée,2,1,Fleurs,"<?xml version=""1.0""?>\n<Clock xmlns:dt=""urn:schemas-microsoft-com:datatypes""><Description dt:dt=""string"">E-Prime Primary Realtime Clock</Description><StartTime><Timestamp dt:dt=""int"">0</Timestamp><DateUtc dt:dt=""string"">2015-07-21T19:50:46Z</DateUtc></StartTime><FrequencyChanges><FrequencyChange><Frequency dt:dt=""r8"">3312929</Frequency><Timestamp dt:dt=""r8"">84540094820</Timestamp><Current dt:dt=""r8"">0</Current><DateUtc dt:dt=""string"">2015-07-21T19:50:46Z</DateUtc></FrequencyChange></FrequencyChanges></Clock>\n",60,Courte,1,0,,3,6293,116564,-1358581031,07-21-2015,15:50:46,19:50:46,4,,3,1,4,,,Fleurs,,cat1_3.bmp,,,Courte,,,255,,,,,Fam,,,Familiarisation,,,,,,,,,PurpleHaze
familiarisation unifiée,2,1,Fleurs,"<?xml version=""1.0""?>\n<Clock xmlns:dt=""urn:schemas-microsoft-com:datatypes""><Description dt:dt=""string"">E-Prime Primary Realtime Clock</Description><StartTime><Timestamp dt:dt=""int"">0</Timestamp><DateUtc dt:dt=""string"">2015-07-21T19:50:46Z</DateUtc></StartTime><FrequencyChanges><FrequencyChange><Frequency dt:dt=""r8"">3312929</Frequency><Timestamp dt:dt=""r8"">84540094820</Timestamp><Current dt:dt=""r8"">0</Current><DateUtc dt:dt=""string"">2015-07-21T19:50:46Z</DateUtc></FrequencyChange></FrequencyChanges></Clock>\n",60,Courte,1,0,,3,6293,116564,-1358581031,07-21-2015,15:50:46,19:50:46,5,,1,1,5,,,Fleurs,,cat1_7.bmp,,,Courte,,,285,,,,,Fam,,,Familiarisation,,,,,,,,,PurpleHaze
familiarisation unifiée,2,1,Fleurs,"<?xml version=""1.0""?>\n<Clock xmlns:dt=""urn:schemas-microsoft-com:datatypes""><Description dt:dt=""string"">E-Prime Primary Realtime Clock</Description><StartTime><Timestamp dt:dt=""int"">0</Timestamp><DateUtc dt:dt=""string"">2015-07-21T19:50:46Z</DateUtc></StartTime><FrequencyChanges><FrequencyChange><Frequency dt:dt=""r8"">3312929</Frequency><Timestamp dt:dt=""r8"">84540094820</Timestamp><Current dt:dt=""r8"">0</Current><DateUtc dt:dt=""string"">2015-07-21T19:50:46Z</DateUtc></FrequencyChange></FrequencyChanges></Clock>\n",60,Courte,1,0,,3,6293,116564,-1358581031,07-21-2015,15:50:46,19:50:46,6,,,,,,Left,Fleurs,1.229357798,,cat1_4.bmp,PurpleHaze,Courte,PurpleHaze,134,,109,,,,Testproc,cat2_4.bmp,Alata,Test,,,,,,3,1,1,
familiarisation unifiée,2,1,Fleurs,"<?xml version=""1.0""?>\n<Clock xmlns:dt=""urn:schemas-microsoft-com:datatypes""><Description dt:dt=""string"">E-Prime Primary Realtime Clock</Description><StartTime><Timestamp dt:dt=""int"">0</Timestamp><DateUtc dt:dt=""string"">2015-07-21T19:50:46Z</DateUtc></StartTime><FrequencyChanges><FrequencyChange><Frequency dt:dt=""r8"">3312929</Frequency><Timestamp dt:dt=""r8"">84540094820</Timestamp><Current dt:dt=""r8"">0</Current><DateUtc dt:dt=""string"">2015-07-21T19:50:46Z</DateUtc></FrequencyChange></FrequencyChanges></Clock>\n",60,Courte,1,0,,3,6293,116564,-1358581031,07-21-2015,15:50:46,19:50:46,7,,,,,,Left,Fleurs,0.267942584,,cat1_13.bmp,PurpleHaze,Courte,PurpleHaze,56,,209,,,,Testproc,cat2_7.bmp,Alata,Test,,,,,,2,1,2,
familiarisation unifiée,2,1,Fleurs,"<?xml version=""1.0""?>\n<Clock xmlns:dt=""urn:schemas-microsoft-com:datatypes""><Description dt:dt=""string"">E-Prime Primary Realtime Clock</Description><StartTime><Timestamp dt:dt=""int"">0</Timestamp><DateUtc dt:dt=""string"">2015-07-21T19:50:46Z</DateUtc></StartTime><FrequencyChanges><FrequencyChange><Frequency dt:dt=""r8"">3312929</Frequency><Timestamp dt:dt=""r8"">84540094820</Timestamp><Current dt:dt=""r8"">0</Current><DateUtc dt:dt=""string"">2015-07-21T19:50:46Z</DateUtc></FrequencyChange></FrequencyChanges></Clock>\n",60,Courte,1,0,,3,6293,116564,-1358581031,07-21-2015,15:50:46,19:50:46,8,,,,,,Right,Fleurs,1.140186916,,cat2_9.bmp,Alata,Courte,PurpleHaze,107,,122,,,,Testproc,cat1_12.bmp,PurpleHaze,Test,,,,,,10,1,3,
familiarisation unifiée,2,1,Fleurs,"<?xml version=""1.0""?>\n<Clock xmlns:dt=""urn:schemas-microsoft-com:datatypes""><Description dt:dt=""string"">E-Prime Primary Realtime Clock</Description><StartTime><Timestamp dt:dt=""int"">0</Timestamp><DateUtc dt:dt=""string"">2015-07-21T19:50:46Z</DateUtc></StartTime><FrequencyChanges><FrequencyChange><Frequency dt:dt=""r8"">3312929</Frequency><Timestamp dt:dt=""r8"">84540094820</Timestamp><Current dt:dt=""r8"">0</Current><DateUtc dt:dt=""string"">2015-07-21T19:50:46Z</DateUtc></FrequencyChange></FrequencyChanges></Clock>\n",60,Courte,1,0,,3,6293,116564,-1358581031,07-21-2015,15:50:46,19:50:46,9,,,,,,Right,Fleurs,1.243697479,,cat2_5.bmp,Alata,Courte,PurpleHaze,119,,148,,,,Testproc,cat1_15.bmp,PurpleHaze,Test,,,,,,6,1,4,
familiarisation unifiée,2,1,Fleurs,"<?xml version=""1.0""?>\n<Clock xmlns:dt=""urn:schemas-microsoft-com:datatypes""><Description dt:dt=""string"">E-Prime Primary Realtime Clock</Description><StartTime><Timestamp dt:dt=""int"">0</Timestamp><DateUtc dt:dt=""string"">2015-07-21T19:50:46Z</DateUtc></StartTime><FrequencyChanges><FrequencyChange><Frequency dt:dt=""r8"">3312929</Frequency><Timestamp dt:dt=""r8"">84540094820</Timestamp><Current dt:dt=""r8"">0</Current><DateUtc dt:dt=""string"">2015-07-21T19:50:46Z</DateUtc></FrequencyChange></FrequencyChanges></Clock>\n",60,Courte,1,0,,3,6293,116564,-1358581031,07-21-2015,15:50:46,19:50:46,10,,,,,,Left,Fleurs,0.631840796,,cat1_12.bmp,PurpleHaze,Courte,PurpleHaze,127,,201,,,,Testproc,cat2_9.bmp,Alata,Test,,,,,,5,1,5,
familiarisation unifiée,2,1,Fleurs,"<?xml version=""1.0""?>\n<Clock xmlns:dt=""urn:schemas-microsoft-com:datatypes""><Description dt:dt=""string"">E-Prime Primary Realtime Clock</Description><StartTime><Timestamp dt:dt=""int"">0</Timestamp><DateUtc dt:dt=""string"">2015-07-21T19:50:46Z</DateUtc></StartTime><FrequencyChanges><FrequencyChange><Frequency dt:dt=""r8"">3312929</Frequency><Timestamp dt:dt=""r8"">84540094820</Timestamp><Current dt:dt=""r8"">0</Current><DateUtc dt:dt=""string"">2015-07-21T19:50:46Z</DateUtc></FrequencyChange></FrequencyChanges></Clock>\n",60,Courte,1,0,,3,6293,116564,-1358581031,07-21-2015,15:50:46,19:50:46,11,,,,,,Right,Fleurs,0.358208955,,cat2_7.bmp,Alata,Courte,PurpleHaze,201,,72,,,,Testproc,cat1_13.bmp,PurpleHaze,Test,,,,,,7,1,6,
familiarisation unifiée,2,1,Fleurs,"<?xml version=""1.0""?>\n<Clock xmlns:dt=""urn:schemas-microsoft-com:datatypes""><Description dt:dt=""string"">E-Prime Primary Realtime Clock</Description><StartTime><Timestamp dt:dt=""int"">0</Timestamp><DateUtc dt:dt=""string"">2015-07-21T19:50:46Z</DateUtc></StartTime><FrequencyChanges><FrequencyChange><Frequency dt:dt=""r8"">3312929</Frequency><Timestamp dt:dt=""r8"">84540094820</Timestamp><Current dt:dt=""r8"">0</Current><DateUtc dt:dt=""string"">2015-07-21T19:50:46Z</DateUtc></FrequencyChange></FrequencyChanges></Clock>\n",60,Courte,1,0,,3,6293,116564,-1358581031,07-21-2015,15:50:46,19:50:46,12,,,,,,Left,Fleurs,0.871794872,,cat1_15.bmp,PurpleHaze,Courte,PurpleHaze,136,,156,,,,Testproc,cat2_5.bmp,Alata,Test,,,,,,1,1,7,
familiarisation unifiée,2,1,Fleurs,"<?xml version=""1.0""?>\n<Clock xmlns:dt=""urn:schemas-microsoft-com:datatypes""><Description dt:dt=""string"">E-Prime Primary Realtime Clock</Description><StartTime><Timestamp dt:dt=""int"">0</Timestamp><DateUtc dt:dt=""string"">2015-07-21T19:50:46Z</DateUtc></StartTime><FrequencyChanges><FrequencyChange><Frequency dt:dt=""r8"">3312929</Frequency><Timestamp dt:dt=""r8"">84540094820</Timestamp><Current dt:dt=""r8"">0</Current><DateUtc dt:dt=""string"">2015-07-21T19:50:46Z</DateUtc></FrequencyChange></FrequencyChanges></Clock>\n",60,Courte,1,0,,3,6293,116564,-1358581031,07-21-2015,15:50:46,19:50:46,13,,,,,,Right,Fleurs,1.276119403,,cat2_4.bmp,Alata,Courte,PurpleHaze,134,,171,,,,Testproc,cat1_4.bmp,PurpleHaze,Test,,,,,,8,1,8,
familiarisation unifiée,2,1,Fleurs,"<?xml version=""1.0""?>\n<Clock xmlns:dt=""urn:schemas-microsoft-com:datatypes""><Description dt:dt=""string"">E-Prime Primary Realtime Clock</Description><StartTime><Timestamp dt:dt=""int"">0</Timestamp><DateUtc dt:dt=""string"">2015-07-21T19:50:46Z</DateUtc></StartTime><FrequencyChanges><FrequencyChange><Frequency dt:dt=""r8"">3312929</Frequency><Timestamp dt:dt=""r8"">84540094820</Timestamp><Current dt:dt=""r8"">0</Current><DateUtc dt:dt=""string"">2015-07-21T19:50:46Z</DateUtc></FrequencyChange></FrequencyChanges></Clock>\n",60,Courte,1,0,,3,6293,116564,-1358581031,07-21-2015,15:50:46,19:50:46,14,,,,,,Right,Fleurs,1.504761905,,cat2_2.bmp,Alata,Courte,PurpleHaze,105,,158,,,,Testproc,cat1_2.bmp,PurpleHaze,Test,,,,,,9,1,9,
familiarisation unifiée,2,1,Fleurs,"<?xml version=""1.0""?>\n<Clock xmlns:dt=""urn:schemas-microsoft-com:datatypes""><Description dt:dt=""string"">E-Prime Primary Realtime Clock</Description><StartTime><Timestamp dt:dt=""int"">0</Timestamp><DateUtc dt:dt=""string"">2015-07-21T19:50:46Z</DateUtc></StartTime><FrequencyChanges><FrequencyChange><Frequency dt:dt=""r8"">3312929</Frequency><Timestamp dt:dt=""r8"">84540094820</Timestamp><Current dt:dt=""r8"">0</Current><DateUtc dt:dt=""string"">2015-07-21T19:50:46Z</DateUtc></FrequencyChange></FrequencyChanges></Clock>\n",60,Courte,1,0,,3,6293,116564,-1358581031,07-21-2015,15:50:46,19:50:46,15,,,,,,Left,Fleurs,1.252252252,,cat1_2.bmp,PurpleHaze,Courte,PurpleHaze,139,,111,,,,Testproc,cat2_2.bmp,Alata,Test,,,,,,4,1,10,
familiarisation unifiée,2,1,Fleurs,"<?xml version=""1.0""?>\n<Clock xmlns:dt=""urn:schemas-microsoft-com:datatypes""><Description dt:dt=""string"">E-Prime Primary Realtime Clock</Description><StartTime><Timestamp dt:dt=""int"">0</Timestamp><DateUtc dt:dt=""string"">2015-07-21T19:50:46Z</DateUtc></StartTime><FrequencyChanges><FrequencyChange><Frequency dt:dt=""r8"">3312929</Frequency><Timestamp dt:dt=""r8"">84540094820</Timestamp><Current dt:dt=""r8"">0</Current><DateUtc dt:dt=""string"">2015-07-21T19:50:46Z</DateUtc></FrequencyChange></FrequencyChanges></Clock>\n",60,Courte,1,0,,3,6293,116564,-1358581031,07-21-2015,15:50:46,19:50:46,16,Novel,,,,Familiar,,Fleurs,,cat2_5.bmp,,,Courte,PurpleHaze,,,,3,1,1,PrefTest,,,Preferences,0,,5,9205,126860,,,,
familiarisation unifiée,2,1,Fleurs,"<?xml version=""1.0""?>\n<Clock xmlns:dt=""urn:schemas-microsoft-com:datatypes""><Description dt:dt=""string"">E-Prime Primary Realtime Clock</Description><StartTime><Timestamp dt:dt=""int"">0</Timestamp><DateUtc dt:dt=""string"">2015-07-21T19:50:46Z</DateUtc></StartTime><FrequencyChanges><FrequencyChange><Frequency dt:dt=""r8"">3312929</Frequency><Timestamp dt:dt=""r8"">84540094820</Timestamp><Current dt:dt=""r8"">0</Current><DateUtc dt:dt=""string"">2015-07-21T19:50:46Z</DateUtc></FrequencyChange></FrequencyChanges></Clock>\n",60,Courte,1,0,,3,6293,116564,-1358581031,07-21-2015,15:50:46,19:50:46,17,Familiar,,,,Novel,,Fleurs,,cat1_11.bmp,,,Courte,PurpleHaze,,,,2,1,2,PrefTest,,,Preferences,0,,4,2865,130820,,,,
familiarisation unifiée,2,1,Fleurs,"<?xml version=""1.0""?>\n<Clock xmlns:dt=""urn:schemas-microsoft-com:datatypes""><Description dt:dt=""string"">E-Prime Primary Realtime Clock</Description><StartTime><Timestamp dt:dt=""int"">0</Timestamp><DateUtc dt:dt=""string"">2015-07-21T19:50:46Z</DateUtc></StartTime><FrequencyChanges><FrequencyChange><Frequency dt:dt=""r8"">3312929</Frequency><Timestamp dt:dt=""r8"">84540094820</Timestamp><Current dt:dt=""r8"">0</Current><DateUtc dt:dt=""string"">2015-07-21T19:50:46Z</DateUtc></FrequencyChange></FrequencyChanges></Clock>\n",60,Courte,1,0,,3,6293,116564,-1358581031,07-21-2015,15:50:46,19:50:46,18,Familiar,,,,Familiar,,Fleurs,,cat1_7.bmp,,,Courte,PurpleHaze,,,,1,1,3,PrefTest,,,Preferences,0,,3,3827,135715,,,,
familiarisation unifiée,2,1,Fleurs,"<?xml version=""1.0""?>\n<Clock xmlns:dt=""urn:schemas-microsoft-com:datatypes""><Description dt:dt=""string"">E-Prime Primary Realtime Clock</Description><StartTime><Timestamp dt:dt=""int"">0</Timestamp><DateUtc dt:dt=""string"">2015-07-21T19:50:46Z</DateUtc></StartTime><FrequencyChanges><FrequencyChange><Frequency dt:dt=""r8"">3312929</Frequency><Timestamp dt:dt=""r8"">84540094820</Timestamp><Current dt:dt=""r8"">0</Current><DateUtc dt:dt=""string"">2015-07-21T19:50:46Z</DateUtc></FrequencyChange></FrequencyChanges></Clock>\n",60,Courte,1,0,,3,6293,116564,-1358581031,07-21-2015,15:50:46,19:50:46,19,Novel,,,,Novel,,Fleurs,,cat2_15.bmp,,,Courte,PurpleHaze,,,,4,1,4,PrefTest,,,Preferences,0,,6,2807,139595,,,,
familiarisation unifiée,2,1,Fleurs,"<?xml version=""1.0""?>\n<Clock xmlns:dt=""urn:schemas-microsoft-com:datatypes""><Description dt:dt=""string"">E-Prime Primary Realtime Clock</Description><StartTime><Timestamp dt:dt=""int"">0</Timestamp><DateUtc dt:dt=""string"">2015-07-21T19:50:46Z</DateUtc></StartTime><FrequencyChanges><FrequencyChange><Frequency dt:dt=""r8"">3312929</Frequency><Timestamp dt:dt=""r8"">84540094820</Timestamp><Current dt:dt=""r8"">0</Current><DateUtc dt:dt=""string"">2015-07-21T19:50:46Z</DateUtc></FrequencyChange></FrequencyChanges></Clock>\n",60,Courte,1,0,,3,6293,116564,-1358581031,07-21-2015,15:50:46,19:50:46,20,Unknown,,,,Novel,,Fleurs,,cat3_1.bmp,,,Courte,PurpleHaze,,,,5,1,5,PrefTest,,,Preferences,0,,7,3332,144003,,,,
familiarisation unifiée,2,2,Fractales,"<?xml version=""1.0""?>\n<Clock xmlns:dt=""urn:schemas-microsoft-com:datatypes""><Description dt:dt=""string"">E-Prime Primary Realtime Clock</Description><StartTime><Timestamp dt:dt=""int"">0</Timestamp><DateUtc dt:dt=""string"">2015-07-21T19:53:28Z</DateUtc></StartTime><FrequencyChanges><FrequencyChange><Frequency dt:dt=""r8"">3312929</Frequency><Timestamp dt:dt=""r8"">85076475207</Timestamp><Current dt:dt=""r8"">0</Current><DateUtc dt:dt=""string"">2015-07-21T19:53:28Z</DateUtc></FrequencyChange></FrequencyChanges></Clock>\n",60,Longue,1,0,,4,6478,167345,-822202047,07-21-2015,15:53:28,19:53:28,1,,3,1,1,,,Fractales,,cat4_2.bmp,,,Longue,,,301,,,,,Fam,,,Familiarisation,,,,,,,,,Mandelbrot
familiarisation unifiée,2,2,Fractales,"<?xml version=""1.0""?>\n<Clock xmlns:dt=""urn:schemas-microsoft-com:datatypes""><Description dt:dt=""string"">E-Prime Primary Realtime Clock</Description><StartTime><Timestamp dt:dt=""int"">0</Timestamp><DateUtc dt:dt=""string"">2015-07-21T19:53:28Z</DateUtc></StartTime><FrequencyChanges><FrequencyChange><Frequency dt:dt=""r8"">3312929</Frequency><Timestamp dt:dt=""r8"">85076475207</Timestamp><Current dt:dt=""r8"">0</Current><DateUtc dt:dt=""string"">2015-07-21T19:53:28Z</DateUtc></FrequencyChange></FrequencyChanges></Clock>\n",60,Longue,1,0,,4,6478,167345,-822202047,07-21-2015,15:53:28,19:53:28,2,,5,1,2,,,Fractales,,cat4_1.bmp,,,Longue,,,296,,,,,Fam,,,Familiarisation,,,,,,,,,Mandelbrot
familiarisation unifiée,2,2,Fractales,"<?xml version=""1.0""?>\n<Clock xmlns:dt=""urn:schemas-microsoft-com:datatypes""><Description dt:dt=""string"">E-Prime Primary Realtime Clock</Description><StartTime><Timestamp dt:dt=""int"">0</Timestamp><DateUtc dt:dt=""string"">2015-07-21T19:53:28Z</DateUtc></StartTime><FrequencyChanges><FrequencyChange><Frequency dt:dt=""r8"">3312929</Frequency><Timestamp dt:dt=""r8"">85076475207</Timestamp><Current dt:dt=""r8"">0</Current><DateUtc dt:dt=""string"">2015-07-21T19:53:28Z</DateUtc></FrequencyChange></FrequencyChanges></Clock>\n",60,Longue,1,0,,4,6478,167345,-822202047,07-21-2015,15:53:28,19:53:28,3,,1,1,3,,,Fractales,,cat4_12.bmp,,,Longue,,,277,,,,,Fam,,,Familiarisation,,,,,,,,,Mandelbrot
familiarisation unifiée,2,2,Fractales,"<?xml version=""1.0""?>\n<Clock xmlns:dt=""urn:schemas-microsoft-com:datatypes""><Description dt:dt=""string"">E-Prime Primary Realtime Clock</Description><StartTime><Timestamp dt:dt=""int"">0</Timestamp><DateUtc dt:dt=""string"">2015-07-21T19:53:28Z</DateUtc></StartTime><FrequencyChanges><FrequencyChange><Frequency dt:dt=""r8"">3312929</Frequency><Timestamp dt:dt=""r8"">85076475207</Timestamp><Current dt:dt=""r8"">0</Current><DateUtc dt:dt=""string"">2015-07-21T19:53:28Z</DateUtc></FrequencyChange></FrequencyChanges></Clock>\n",60,Longue,1,0,,4,6478,167345,-822202047,07-21-2015,15:53:28,19:53:28,4,,2,1,4,,,Fractales,,cat4_10.bmp,,,Longue,,,236,,,,,Fam,,,Familiarisation,,,,,,,,,Mandelbrot
familiarisation unifiée,2,2,Fractales,"<?xml version=""1.0""?>\n<Clock xmlns:dt=""urn:schemas-microsoft-com:datatypes""><Description dt:dt=""string"">E-Prime Primary Realtime Clock</Description><StartTime><Timestamp dt:dt=""int"">0</Timestamp><DateUtc dt:dt=""string"">2015-07-21T19:53:28Z</DateUtc></StartTime><FrequencyChanges><FrequencyChange><Frequency dt:dt=""r8"">3312929</Frequency><Timestamp dt:dt=""r8"">85076475207</Timestamp><Current dt:dt=""r8"">0</Current><DateUtc dt:dt=""string"">2015-07-21T19:53:28Z</DateUtc></FrequencyChange></FrequencyChanges></Clock>\n",60,Longue,1,0,,4,6478,167345,-822202047,07-21-2015,15:53:28,19:53:28,5,,4,1,5,,,Fractales,,cat4_7.bmp,,,Longue,,,225,,,,,Fam,,,Familiarisation,,,,,,,,,Mandelbrot
familiarisation unifiée,2,2,Fractales,"<?xml version=""1.0""?>\n<Clock xmlns:dt=""urn:schemas-microsoft-com:datatypes""><Description dt:dt=""string"">E-Prime Primary Realtime Clock</Description><StartTime><Timestamp dt:dt=""int"">0</Timestamp><DateUtc dt:dt=""string"">2015-07-21T19:53:28Z</DateUtc></StartTime><FrequencyChanges><FrequencyChange><Frequency dt:dt=""r8"">3312929</Frequency><Timestamp dt:dt=""r8"">85076475207</Timestamp><Current dt:dt=""r8"">0</Current><DateUtc dt:dt=""string"">2015-07-21T19:53:28Z</DateUtc></FrequencyChange></FrequencyChanges></Clock>\n",60,Longue,1,0,,4,6478,167345,-822202047,07-21-2015,15:53:28,19:53:28,6,,1,2,6,,,Fractales,,cat4_12.bmp,,,Longue,,,279,,,,,Fam,,,Familiarisation,,,,,,,,,Mandelbrot
familiarisation unifiée,2,2,Fractales,"<?xml version=""1.0""?>\n<Clock xmlns:dt=""urn:schemas-microsoft-com:datatypes""><Description dt:dt=""string"">E-Prime Primary Realtime Clock</Description><StartTime><Timestamp dt:dt=""int"">0</Timestamp><DateUtc dt:dt=""string"">2015-07-21T19:53:28Z</DateUtc></StartTime><FrequencyChanges><FrequencyChange><Frequency dt:dt=""r8"">3312929</Frequency><Timestamp dt:dt=""r8"">85076475207</Timestamp><Current dt:dt=""r8"">0</Current><DateUtc dt:dt=""string"">2015-07-21T19:53:28Z</DateUtc></FrequencyChange></FrequencyChanges></Clock>\n",60,Longue,1,0,,4,6478,167345,-822202047,07-21-2015,15:53:28,19:53:28,7,,3,2,7,,,Fractales,,cat4_2.bmp,,,Longue,,,281,,,,,Fam,,,Familiarisation,,,,,,,,,Mandelbrot
familiarisation unifiée,2,2,Fractales,"<?xml version=""1.0""?>\n<Clock xmlns:dt=""urn:schemas-microsoft-com:datatypes""><Description dt:dt=""string"">E-Prime Primary Realtime Clock</Description><StartTime><Timestamp dt:dt=""int"">0</Timestamp><DateUtc dt:dt=""string"">2015-07-21T19:53:28Z</DateUtc></StartTime><FrequencyChanges><FrequencyChange><Frequency dt:dt=""r8"">3312929</Frequency><Timestamp dt:dt=""r8"">85076475207</Timestamp><Current dt:dt=""r8"">0</Current><DateUtc dt:dt=""string"">2015-07-21T19:53:28Z</DateUtc></FrequencyChange></FrequencyChanges></Clock>\n",60,Longue,1,0,,4,6478,167345,-822202047,07-21-2015,15:53:28,19:53:28,8,,4,2,8,,,Fractales,,cat4_7.bmp,,,Longue,,,268,,,,,Fam,,,Familiarisation,,,,,,,,,Mandelbrot
familiarisation unifiée,2,2,Fractales,"<?xml version=""1.0""?>\n<Clock xmlns:dt=""urn:schemas-microsoft-com:datatypes""><Description dt:dt=""string"">E-Prime Primary Realtime Clock</Description><StartTime><Timestamp dt:dt=""int"">0</Timestamp><DateUtc dt:dt=""string"">2015-07-21T19:53:28Z</DateUtc></StartTime><FrequencyChanges><FrequencyChange><Frequency dt:dt=""r8"">3312929</Frequency><Timestamp dt:dt=""r8"">85076475207</Timestamp><Current dt:dt=""r8"">0</Current><DateUtc dt:dt=""string"">2015-07-21T19:53:28Z</DateUtc></FrequencyChange></FrequencyChanges></Clock>\n",60,Longue,1,0,,4,6478,167345,-822202047,07-21-2015,15:53:28,19:53:28,9,,2,2,9,,,Fractales,,cat4_10.bmp,,,Longue,,,242,,,,,Fam,,,Familiarisation,,,,,,,,,Mandelbrot
familiarisation unifiée,2,2,Fractales,"<?xml version=""1.0""?>\n<Clock xmlns:dt=""urn:schemas-microsoft-com:datatypes""><Description dt:dt=""string"">E-Prime Primary Realtime Clock</Description><StartTime><Timestamp dt:dt=""int"">0</Timestamp><DateUtc dt:dt=""string"">2015-07-21T19:53:28Z</DateUtc></StartTime><FrequencyChanges><FrequencyChange><Frequency dt:dt=""r8"">3312929</Frequency><Timestamp dt:dt=""r8"">85076475207</Timestamp><Current dt:dt=""r8"">0</Current><DateUtc dt:dt=""string"">2015-07-21T19:53:28Z</DateUtc></FrequencyChange></FrequencyChanges></Clock>\n",60,Longue,1,0,,4,6478,167345,-822202047,07-21-2015,15:53:28,19:53:28,10,,5,2,10,,,Fractales,,cat4_1.bmp,,,Longue,,,275,,,,,Fam,,,Familiarisation,,,,,,,,,Mandelbrot
familiarisation unifiée,2,2,Fractales,"<?xml version=""1.0""?>\n<Clock xmlns:dt=""urn:schemas-microsoft-com:datatypes""><Description dt:dt=""string"">E-Prime Primary Realtime Clock</Description><StartTime><Timestamp dt:dt=""int"">0</Timestamp><DateUtc dt:dt=""string"">2015-07-21T19:53:28Z</DateUtc></StartTime><FrequencyChanges><FrequencyChange><Frequency dt:dt=""r8"">3312929</Frequency><Timestamp dt:dt=""r8"">85076475207</Timestamp><Current dt:dt=""r8"">0</Current><DateUtc dt:dt=""string"">2015-07-21T19:53:28Z</DateUtc></FrequencyChange></FrequencyChanges></Clock>\n",60,Longue,1,0,,4,6478,167345,-822202047,07-21-2015,15:53:28,19:53:28,11,,5,3,11,,,Fractales,,cat4_1.bmp,,,Longue,,,252,,,,,Fam,,,Familiarisation,,,,,,,,,Mandelbrot
familiarisation unifiée,2,2,Fractales,"<?xml version=""1.0""?>\n<Clock xmlns:dt=""urn:schemas-microsoft-com:datatypes""><Description dt:dt=""string"">E-Prime Primary Realtime Clock</Description><StartTime><Timestamp dt:dt=""int"">0</Timestamp><DateUtc dt:dt=""string"">2015-07-21T19:53:28Z</DateUtc></StartTime><FrequencyChanges><FrequencyChange><Frequency dt:dt=""r8"">3312929</Frequency><Timestamp dt:dt=""r8"">85076475207</Timestamp><Current dt:dt=""r8"">0</Current><DateUtc dt:dt=""string"">2015-07-21T19:53:28Z</DateUtc></FrequencyChange></FrequencyChanges></Clock>\n",60,Longue,1,0,,4,6478,167345,-822202047,07-21-2015,15:53:28,19:53:28,12,,4,3,12,,,Fractales,,cat4_7.bmp,,,Longue,,,255,,,,,Fam,,,Familiarisation,,,,,,,,,Mandelbrot
familiarisation unifiée,2,2,Fractales,"<?xml version=""1.0""?>\n<Clock xmlns:dt=""urn:schemas-microsoft-com:datatypes""><Description dt:dt=""string"">E-Prime Primary Realtime Clock</Description><StartTime><Timestamp dt:dt=""int"">0</Timestamp><DateUtc dt:dt=""string"">2015-07-21T19:53:28Z</DateUtc></StartTime><FrequencyChanges><FrequencyChange><Frequency dt:dt=""r8"">3312929</Frequency><Timestamp dt:dt=""r8"">85076475207</Timestamp><Current dt:dt=""r8"">0</Current><DateUtc dt:dt=""string"">2015-07-21T19:53:28Z</DateUtc></FrequencyChange></FrequencyChanges></Clock>\n",60,Longue,1,0,,4,6478,167345,-822202047,07-21-2015,15:53:28,19:53:28,13,,3,3,13,,,Fractales,,cat4_2.bmp,,,Longue,,,296,,,,,Fam,,,Familiarisation,,,,,,,,,Mandelbrot
familiarisation unifiée,2,2,Fractales,"<?xml version=""1.0""?>\n<Clock xmlns:dt=""urn:schemas-microsoft-com:datatypes""><Description dt:dt=""string"">E-Prime Primary Realtime Clock</Description><StartTime><Timestamp dt:dt=""int"">0</Timestamp><DateUtc dt:dt=""string"">2015-07-21T19:53:28Z</DateUtc></StartTime><FrequencyChanges><FrequencyChange><Frequency dt:dt=""r8"">3312929</Frequency><Timestamp dt:dt=""r8"">85076475207</Timestamp><Current dt:dt=""r8"">0</Current><DateUtc dt:dt=""string"">2015-07-21T19:53:28Z</DateUtc></FrequencyChange></FrequencyChanges></Clock>\n",60,Longue,1,0,,4,6478,167345,-822202047,07-21-2015,15:53:28,19:53:28,14,,1,3,14,,,Fractales,,cat4_12.bmp,,,Longue,,,264,,,,,Fam,,,Familiarisation,,,,,,,,,Mandelbrot
familiarisation unifiée,2,2,Fractales,"<?xml version=""1.0""?>\n<Clock xmlns:dt=""urn:schemas-microsoft-com:datatypes""><Description dt:dt=""string"">E-Prime Primary Realtime Clock</Description><StartTime><Timestamp dt:dt=""int"">0</Timestamp><DateUtc dt:dt=""string"">2015-07-21T19:53:28Z</DateUtc></StartTime><FrequencyChanges><FrequencyChange><Frequency dt:dt=""r8"">3312929</Frequency><Timestamp dt:dt=""r8"">85076475207</Timestamp><Current dt:dt=""r8"">0</Current><DateUtc dt:dt=""string"">2015-07-21T19:53:28Z</DateUtc></FrequencyChange></FrequencyChanges></Clock>\n",60,Longue,1,0,,4,6478,167345,-822202047,07-21-2015,15:53:28,19:53:28,15,,2,3,15,,,Fractales,,cat4_10.bmp,,,Longue,,,289,,,,,Fam,,,Familiarisation,,,,,,,,,Mandelbrot
familiarisation unifiée,2,2,Fractales,"<?xml version=""1.0""?>\n<Clock xmlns:dt=""urn:schemas-microsoft-com:datatypes""><Description dt:dt=""string"">E-Prime Primary Realtime Clock</Description><StartTime><Timestamp dt:dt=""int"">0</Timestamp><DateUtc dt:dt=""string"">2015-07-21T19:53:28Z</DateUtc></StartTime><FrequencyChanges><FrequencyChange><Frequency dt:dt=""r8"">3312929</Frequency><Timestamp dt:dt=""r8"">85076475207</Timestamp><Current dt:dt=""r8"">0</Current><DateUtc dt:dt=""string"">2015-07-21T19:53:28Z</DateUtc></FrequencyChange></FrequencyChanges></Clock>\n",60,Longue,1,0,,4,6478,167345,-822202047,07-21-2015,15:53:28,19:53:28,16,,,,,,Right,Fractales,0.913333333,,cat5_6.bmp,Julia,Longue,Mandelbrot,150,,137,,,,Testproc,cat4_3.bmp,Mandelbrot,Test,,,,,,6,1,1,
familiarisation unifiée,2,2,Fractales,"<?xml version=""1.0""?>\n<Clock xmlns:dt=""urn:schemas-microsoft-com:datatypes""><Description dt:dt=""string"">E-Prime Primary Realtime Clock</Description><StartTime><Timestamp dt:dt=""int"">0</Timestamp><DateUtc dt:dt=""string"">2015-07-21T19:53:28Z</DateUtc></StartTime><FrequencyChanges><FrequencyChange><Frequency dt:dt=""r8"">3312929</Frequency><Timestamp dt:dt=""r8"">85076475207</Timestamp><Current dt:dt=""r8"">0</Current><DateUtc dt:dt=""string"">2015-07-21T19:53:28Z</DateUtc></FrequencyChange></FrequencyChanges></Clock>\n",60,Longue,1,0,,4,6478,167345,-822202047,07-21-2015,15:53:28,19:53:28,17,,,,,,Right,Fractales,0.725609756,,cat5_12.bmp,Julia,Longue,Mandelbrot,164,,119,,,,Testproc,cat4_14.bmp,Mandelbrot,Test,,,,,,9,1,2,
familiarisation unifiée,2,2,Fractales,"<?xml version=""1.0""?>\n<Clock xmlns:dt=""urn:schemas-microsoft-com:datatypes""><Description dt:dt=""string"">E-Prime Primary Realtime Clock</Description><StartTime><Timestamp dt:dt=""int"">0</Timestamp><DateUtc dt:dt=""string"">2015-07-21T19:53:28Z</DateUtc></StartTime><FrequencyChanges><FrequencyChange><Frequency dt:dt=""r8"">3312929</Frequency><Timestamp dt:dt=""r8"">85076475207</Timestamp><Current dt:dt=""r8"">0</Current><DateUtc dt:dt=""string"">2015-07-21T19:53:28Z</DateUtc></FrequencyChange></FrequencyChanges></Clock>\n",60,Longue,1,0,,4,6478,167345,-822202047,07-21-2015,15:53:28,19:53:28,18,,,,,,Right,Fractales,1.36036036,,cat5_4.bmp,Julia,Longue,Mandelbrot,111,,151,,,,Testproc,cat4_11.bmp,Mandelbrot,Test,,,,,,7,1,3,
familiarisation unifiée,2,2,Fractales,"<?xml version=""1.0""?>\n<Clock xmlns:dt=""urn:schemas-microsoft-com:datatypes""><Description dt:dt=""string"">E-Prime Primary Realtime Clock</Description><StartTime><Timestamp dt:dt=""int"">0</Timestamp><DateUtc dt:dt=""string"">2015-07-21T19:53:28Z</DateUtc></StartTime><FrequencyChanges><FrequencyChange><Frequency dt:dt=""r8"">3312929</Frequency><Timestamp dt:dt=""r8"">85076475207</Timestamp><Current dt:dt=""r8"">0</Current><DateUtc dt:dt=""string"">2015-07-21T19:53:28Z</DateUtc></FrequencyChange></FrequencyChanges></Clock>\n",60,Longue,1,0,,4,6478,167345,-822202047,07-21-2015,15:53:28,19:53:28,19,,,,,,Right,Fractales,2.592105263,,cat5_14.bmp,Julia,Longue,Mandelbrot,76,,197,,,,Testproc,cat4_8.bmp,Mandelbrot,Test,,,,,,8,1,4,
familiarisation unifiée,2,2,Fractales,"<?xml version=""1.0""?>\n<Clock xmlns:dt=""urn:schemas-microsoft-com:datatypes""><Description dt:dt=""string"">E-Prime Primary Realtime Clock</Description><StartTime><Timestamp dt:dt=""int"">0</Timestamp><DateUtc dt:dt=""string"">2015-07-21T19:53:28Z</DateUtc></StartTime><FrequencyChanges><FrequencyChange><Frequency dt:dt=""r8"">3312929</Frequency><Timestamp dt:dt=""r8"">85076475207</Timestamp><Current dt:dt=""r8"">0</Current><DateUtc dt:dt=""string"">2015-07-21T19:53:28Z</DateUtc></FrequencyChange></FrequencyChanges></Clock>\n",60,Longue,1,0,,4,6478,167345,-822202047,07-21-2015,15:53:28,19:53:28,20,,,,,,Left,Fractales,1.129310345,,cat4_14.bmp,Mandelbrot,Longue,Mandelbrot,131,,116,,,,Testproc,cat5_12.bmp,Julia,Test,,,,,,4,1,5,
familiarisation unifiée,2,2,Fractales,"<?xml version=""1.0""?>\n<Clock xmlns:dt=""urn:schemas-microsoft-com:datatypes""><Description dt:dt=""string"">E-Prime Primary Realtime Clock</Description><StartTime><Timestamp dt:dt=""int"">0</Timestamp><DateUtc dt:dt=""string"">2015-07-21T19:53:28Z</DateUtc></StartTime><FrequencyChanges><FrequencyChange><Frequency dt:dt=""r8"">3312929</Frequency><Timestamp dt:dt=""r8"">85076475207</Timestamp><Current dt:dt=""r8"">0</Current><DateUtc dt:dt=""string"">2015-07-21T19:53:28Z</DateUtc></FrequencyChange></FrequencyChanges></Clock>\n",60,Longue,1,0,,4,6478,167345,-822202047,07-21-2015,15:53:28,19:53:28,21,,,,,,Left,Fractales,3.966101695,,cat4_8.bmp,Mandelbrot,Longue,Mandelbrot,234,,59,,,,Testproc,cat5_14.bmp,Julia,Test,,,,,,3,1,6,
familiarisation unifiée,2,2,Fractales,"<?xml version=""1.0""?>\n<Clock xmlns:dt=""urn:schemas-microsoft-com:datatypes""><Description dt:dt=""string"">E-Prime Primary Realtime Clock</Description><StartTime><Timestamp dt:dt=""int"">0</Timestamp><DateUtc dt:dt=""string"">2015-07-21T19:53:28Z</DateUtc></StartTime><FrequencyChanges><FrequencyChange><Frequency dt:dt=""r8"">3312929</Frequency><Timestamp dt:dt=""r8"">85076475207</Timestamp><Current dt:dt=""r8"">0</Current><DateUtc dt:dt=""string"">2015-07-21T19:53:28Z</DateUtc></FrequencyChange></FrequencyChanges></Clock>\n",60,Longue,1,0,,4,6478,167345,-822202047,07-21-2015,15:53:28,19:53:28,22,,,,,,Left,Fractales,0.688622754,,cat4_13.bmp,Mandelbrot,Longue,Mandelbrot,115,,167,,,,Testproc,cat5_15.bmp,Julia,Test,,,,,,5,1,7,
familiarisation unifiée,2,2,Fractales,"<?xml version=""1.0""?>\n<Clock xmlns:dt=""urn:schemas-microsoft-com:datatypes""><Description dt:dt=""string"">E-Prime Primary Realtime Clock</Description><StartTime><Timestamp dt:dt=""int"">0</Timestamp><DateUtc dt:dt=""string"">2015-07-21T19:53:28Z</DateUtc></StartTime><FrequencyChanges><FrequencyChange><Frequency dt:dt=""r8"">3312929</Frequency><Timestamp dt:dt=""r8"">85076475207</Timestamp><Current dt:dt=""r8"">0</Current><DateUtc dt:dt=""string"">2015-07-21T19:53:28Z</DateUtc></FrequencyChange></FrequencyChanges></Clock>\n",60,Longue,1,0,,4,6478,167345,-822202047,07-21-2015,15:53:28,19:53:28,23,,,,,,Left,Fractales,1.486725664,,cat4_3.bmp,Mandelbrot,Longue,Mandelbrot,168,,113,,,,Testproc,cat5_6.bmp,Julia,Test,,,,,,1,1,8,
familiarisation unifiée,2,2,Fractales,"<?xml version=""1.0""?>\n<Clock xmlns:dt=""urn:schemas-microsoft-com:datatypes""><Description dt:dt=""string"">E-Prime Primary Realtime Clock</Description><StartTime><Timestamp dt:dt=""int"">0</Timestamp><DateUtc dt:dt=""string"">2015-07-21T19:53:28Z</DateUtc></StartTime><FrequencyChanges><FrequencyChange><Frequency dt:dt=""r8"">3312929</Frequency><Timestamp dt:dt=""r8"">85076475207</Timestamp><Current dt:dt=""r8"">0</Current><DateUtc dt:dt=""string"">2015-07-21T19:53:28Z</DateUtc></FrequencyChange></FrequencyChanges></Clock>\n",60,Longue,1,0,,4,6478,167345,-822202047,07-21-2015,15:53:28,19:53:28,24,,,,,,Right,Fractales,0.952380952,,cat5_15.bmp,Julia,Longue,Mandelbrot,147,,140,,,,Testproc,cat4_13.bmp,Mandelbrot,Test,,,,,,10,1,9,
familiarisation unifiée,2,2,Fractales,"<?xml version=""1.0""?>\n<Clock xmlns:dt=""urn:schemas-microsoft-com:datatypes""><Description dt:dt=""string"">E-Prime Primary Realtime Clock</Description><StartTime><Timestamp dt:dt=""int"">0</Timestamp><DateUtc dt:dt=""string"">2015-07-21T19:53:28Z</DateUtc></StartTime><FrequencyChanges><FrequencyChange><Frequency dt:dt=""r8"">3312929</Frequency><Timestamp dt:dt=""r8"">85076475207</Timestamp><Current dt:dt=""r8"">0</Current><DateUtc dt:dt=""string"">2015-07-21T19:53:28Z</DateUtc></FrequencyChange></FrequencyChanges></Clock>\n",60,Longue,1,0,,4,6478,167345,-822202047,07-21-2015,15:53:28,19:53:28,25,,,,,,Left,Fractales,0.472826087,,cat4_11.bmp,Mandelbrot,Longue,Mandelbrot,87,,184,,,,Testproc,cat5_4.bmp,Julia,Test,,,,,,2,1,10,
familiarisation unifiée,2,2,Fractales,"<?xml version=""1.0""?>\n<Clock xmlns:dt=""urn:schemas-microsoft-com:datatypes""><Description dt:dt=""string"">E-Prime Primary Realtime Clock</Description><StartTime><Timestamp dt:dt=""int"">0</Timestamp><DateUtc dt:dt=""string"">2015-07-21T19:53:28Z</DateUtc></StartTime><FrequencyChanges><FrequencyChange><Frequency dt:dt=""r8"">3312929</Frequency><Timestamp dt:dt=""r8"">85076475207</Timestamp><Current dt:dt=""r8"">0</Current><DateUtc dt:dt=""string"">2015-07-21T19:53:28Z</DateUtc></FrequencyChange></FrequencyChanges></Clock>\n",60,Longue,1,0,,4,6478,167345,-822202047,07-21-2015,15:53:28,19:53:28,26,Novel,,,,Novel,,Fractales,,cat5_7.bmp,,,Longue,Mandelbrot,,,,4,1,1,PrefTest,,,Preferences,0,,6,2086,170536,,,,
familiarisation unifiée,2,2,Fractales,"<?xml version=""1.0""?>\n<Clock xmlns:dt=""urn:schemas-microsoft-com:datatypes""><Description dt:dt=""string"">E-Prime Primary Realtime Clock</Description><StartTime><Timestamp dt:dt=""int"">0</Timestamp><DateUtc dt:dt=""string"">2015-07-21T19:53:28Z</DateUtc></StartTime><FrequencyChanges><FrequencyChange><Frequency dt:dt=""r8"">3312929</Frequency><Timestamp dt:dt=""r8"">85076475207</Timestamp><Current dt:dt=""r8"">0</Current><DateUtc dt:dt=""string"">2015-07-21T19:53:28Z</DateUtc></FrequencyChange></FrequencyChanges></Clock>\n",60,Longue,1,0,,4,6478,167345,-822202047,07-21-2015,15:53:28,19:53:28,27,Novel,,,,Familiar,,Fractales,,cat5_6.bmp,,,Longue,Mandelbrot,,,,3,1,2,PrefTest,,,Preferences,0,,6,1519,173136,,,,
familiarisation unifiée,2,2,Fractales,"<?xml version=""1.0""?>\n<Clock xmlns:dt=""urn:schemas-microsoft-com:datatypes""><Description dt:dt=""string"">E-Prime Primary Realtime Clock</Description><StartTime><Timestamp dt:dt=""int"">0</Timestamp><DateUtc dt:dt=""string"">2015-07-21T19:53:28Z</DateUtc></StartTime><FrequencyChanges><FrequencyChange><Frequency dt:dt=""r8"">3312929</Frequency><Timestamp dt:dt=""r8"">85076475207</Timestamp><Current dt:dt=""r8"">0</Current><DateUtc dt:dt=""string"">2015-07-21T19:53:28Z</DateUtc></FrequencyChange></FrequencyChanges></Clock>\n",60,Longue,1,0,,4,6478,167345,-822202047,07-21-2015,15:53:28,19:53:28,28,Familiar,,,,Familiar,,Fractales,,cat4_12.bmp,,,Longue,Mandelbrot,,,,1,1,3,PrefTest,,,Preferences,0,,7,3567,177784,,,,
familiarisation unifiée,2,2,Fractales,"<?xml version=""1.0""?>\n<Clock xmlns:dt=""urn:schemas-microsoft-com:datatypes""><Description dt:dt=""string"">E-Prime Primary Realtime Clock</Description><StartTime><Timestamp dt:dt=""int"">0</Timestamp><DateUtc dt:dt=""string"">2015-07-21T19:53:28Z</DateUtc></StartTime><FrequencyChanges><FrequencyChange><Frequency dt:dt=""r8"">3312929</Frequency><Timestamp dt:dt=""r8"">85076475207</Timestamp><Current dt:dt=""r8"">0</Current><DateUtc dt:dt=""string"">2015-07-21T19:53:28Z</DateUtc></FrequencyChange></FrequencyChanges></Clock>\n",60,Longue,1,0,,4,6478,167345,-822202047,07-21-2015,15:53:28,19:53:28,29,Unknown,,,,Novel,,Fractales,,cat6_2.bmp,,,Longue,Mandelbrot,,,,5,1,4,PrefTest,,,Preferences,0,,6,3572,182456,,,,
familiarisation unifiée,2,2,Fractales,"<?xml version=""1.0""?>\n<Clock xmlns:dt=""urn:schemas-microsoft-com:datatypes""><Description dt:dt=""string"">E-Prime Primary Realtime Clock</Description><StartTime><Timestamp dt:dt=""int"">0</Timestamp><DateUtc dt:dt=""string"">2015-07-21T19:53:28Z</DateUtc></StartTime><FrequencyChanges><FrequencyChange><Frequency dt:dt=""r8"">3312929</Frequency><Timestamp dt:dt=""r8"">85076475207</Timestamp><Current dt:dt=""r8"">0</Current><DateUtc dt:dt=""string"">2015-07-21T19:53:28Z</DateUtc></FrequencyChange></FrequencyChanges></Clock>\n",60,Longue,1,0,,4,6478,167345,-822202047,07-21-2015,15:53:28,19:53:28,30,Familiar,,,,Novel,,Fractales,,cat4_4.bmp,,,Longue,Mandelbrot,,,,2,1,5,PrefTest,,,Preferences,0,,7,5537,189071,,,,
familiarisation unifiée,8,1,Fleurs,"<?xml version=""1.0""?>\n<Clock xmlns:dt=""urn:schemas-microsoft-com:datatypes""><Description dt:dt=""string"">E-Prime Primary Realtime Clock</Description><StartTime><Timestamp dt:dt=""int"">0</Timestamp><DateUtc dt:dt=""string"">2015-07-14T13:58:37Z</DateUtc></StartTime><FrequencyChanges><FrequencyChange><Frequency dt:dt=""r8"">3312861</Frequency><Timestamp dt:dt=""r8"">5997290670</Timestamp><Current dt:dt=""r8"">0</Current><DateUtc dt:dt=""string"">2015-07-14T13:58:37Z</DateUtc></FrequencyChange></FrequencyChanges></Clock>\n",59.999,Longue,1,0,,3,2434,178082,1702989151,07-14-2015,9:58:37,13:58:37,1,,2,1,1,,,Fleurs,,cat1_1.bmp,,,Longue,,,312,,,,,Fam,,,Familiarisation,,,,,,,,,PurpleHaze
familiarisation unifiée,8,1,Fleurs,"<?xml version=""1.0""?>\n<Clock xmlns:dt=""urn:schemas-microsoft-com:datatypes""><Description dt:dt=""string"">E-Prime Primary Realtime Clock</Description><StartTime><Timestamp dt:dt=""int"">0</Timestamp><DateUtc dt:dt=""string"">2015-07-14T13:58:37Z</DateUtc></StartTime><FrequencyChanges><FrequencyChange><Frequency dt:dt=""r8"">3312861</Frequency><Timestamp dt:dt=""r8"">5997290670</Timestamp><Current dt:dt=""r8"">0</Current><DateUtc dt:dt=""string"">2015-07-14T13:58:37Z</DateUtc></FrequencyChange></FrequencyChanges></Clock>\n",59.999,Longue,1,0,,3,2434,178082,1702989151,07-14-2015,9:58:37,13:58:37,2,,4,1,2,,,Fleurs,,cat1_3.bmp,,,Longue,,,304,,,,,Fam,,,Familiarisation,,,,,,,,,PurpleHaze
familiarisation unifiée,8,1,Fleurs,"<?xml version=""1.0""?>\n<Clock xmlns:dt=""urn:schemas-microsoft-com:datatypes""><Description dt:dt=""string"">E-Prime Primary Realtime Clock</Description><StartTime><Timestamp dt:dt=""int"">0</Timestamp><DateUtc dt:dt=""string"">2015-07-14T13:58:37Z</DateUtc></StartTime><FrequencyChanges><FrequencyChange><Frequency dt:dt=""r8"">3312861</Frequency><Timestamp dt:dt=""r8"">5997290670</Timestamp><Current dt:dt=""r8"">0</Current><DateUtc dt:dt=""string"">2015-07-14T13:58:37Z</DateUtc></FrequencyChange></FrequencyChanges></Clock>\n",59.999,Longue,1,0,,3,2434,178082,1702989151,07-14-2015,9:58:37,13:58:37,3,,3,1,3,,,Fleurs,,cat1_14.bmp,,,Longue,,,313,,,,,Fam,,,Familiarisation,,,,,,,,,PurpleHaze
familiarisation unifiée,8,1,Fleurs,"<?xml version=""1.0""?>\n<Clock xmlns:dt=""urn:schemas-microsoft-com:datatypes""><Description dt:dt=""string"">E-Prime Primary Realtime Clock</Description><StartTime><Timestamp dt:dt=""int"">0</Timestamp><DateUtc dt:dt=""string"">2015-07-14T13:58:37Z</DateUtc></StartTime><FrequencyChanges><FrequencyChange><Frequency dt:dt=""r8"">3312861</Frequency><Timestamp dt:dt=""r8"">5997290670</Timestamp><Current dt:dt=""r8"">0</Current><DateUtc dt:dt=""string"">2015-07-14T13:58:37Z</DateUtc></FrequencyChange></FrequencyChanges></Clock>\n",59.999,Longue,1,0,,3,2434,178082,1702989151,07-14-2015,9:58:37,13:58:37,4,,1,1,4,,,Fleurs,,cat1_5.bmp,,,Longue,,,314,,,,,Fam,,,Familiarisation,,,,,,,,,PurpleHaze
familiarisation unifiée,8,1,Fleurs,"<?xml version=""1.0""?>\n<Clock xmlns:dt=""urn:schemas-microsoft-com:datatypes""><Description dt:dt=""string"">E-Prime Primary Realtime Clock</Description><StartTime><Timestamp dt:dt=""int"">0</Timestamp><DateUtc dt:dt=""string"">2015-07-14T13:58:37Z</DateUtc></StartTime><FrequencyChanges><FrequencyChange><Frequency dt:dt=""r8"">3312861</Frequency><Timestamp dt:dt=""r8"">5997290670</Timestamp><Current dt:dt=""r8"">0</Current><DateUtc dt:dt=""string"">2015-07-14T13:58:37Z</DateUtc></FrequencyChange></FrequencyChanges></Clock>\n",59.999,Longue,1,0,,3,2434,178082,1702989151,07-14-2015,9:58:37,13:58:37,5,,5,1,5,,,Fleurs,,cat1_12.bmp,,,Longue,,,323,,,,,Fam,,,Familiarisation,,,,,,,,,PurpleHaze
familiarisation unifiée,8,1,Fleurs,"<?xml version=""1.0""?>\n<Clock xmlns:dt=""urn:schemas-microsoft-com:datatypes""><Description dt:dt=""string"">E-Prime Primary Realtime Clock</Description><StartTime><Timestamp dt:dt=""int"">0</Timestamp><DateUtc dt:dt=""string"">2015-07-14T13:58:37Z</DateUtc></StartTime><FrequencyChanges><FrequencyChange><Frequency dt:dt=""r8"">3312861</Frequency><Timestamp dt:dt=""r8"">5997290670</Timestamp><Current dt:dt=""r8"">0</Current><DateUtc dt:dt=""string"">2015-07-14T13:58:37Z</DateUtc></FrequencyChange></FrequencyChanges></Clock>\n",59.999,Longue,1,0,,3,2434,178082,1702989151,07-14-2015,9:58:37,13:58:37,6,,3,2,6,,,Fleurs,,cat1_14.bmp,,,Longue,,,299,,,,,Fam,,,Familiarisation,,,,,,,,,PurpleHaze
familiarisation unifiée,8,1,Fleurs,"<?xml version=""1.0""?>\n<Clock xmlns:dt=""urn:schemas-microsoft-com:datatypes""><Description dt:dt=""string"">E-Prime Primary Realtime Clock</Description><StartTime><Timestamp dt:dt=""int"">0</Timestamp><DateUtc dt:dt=""string"">2015-07-14T13:58:37Z</DateUtc></StartTime><FrequencyChanges><FrequencyChange><Frequency dt:dt=""r8"">3312861</Frequency><Timestamp dt:dt=""r8"">5997290670</Timestamp><Current dt:dt=""r8"">0</Current><DateUtc dt:dt=""string"">2015-07-14T13:58:37Z</DateUtc></FrequencyChange></FrequencyChanges></Clock>\n",59.999,Longue,1,0,,3,2434,178082,1702989151,07-14-2015,9:58:37,13:58:37,7,,2,2,7,,,Fleurs,,cat1_1.bmp,,,Longue,,,305,,,,,Fam,,,Familiarisation,,,,,,,,,PurpleHaze
familiarisation unifiée,8,1,Fleurs,"<?xml version=""1.0""?>\n<Clock xmlns:dt=""urn:schemas-microsoft-com:datatypes""><Description dt:dt=""string"">E-Prime Primary Realtime Clock</Description><StartTime><Timestamp dt:dt=""int"">0</Timestamp><DateUtc dt:dt=""string"">2015-07-14T13:58:37Z</DateUtc></StartTime><FrequencyChanges><FrequencyChange><Frequency dt:dt=""r8"">3312861</Frequency><Timestamp dt:dt=""r8"">5997290670</Timestamp><Current dt:dt=""r8"">0</Current><DateUtc dt:dt=""string"">2015-07-14T13:58:37Z</DateUtc></FrequencyChange></FrequencyChanges></Clock>\n",59.999,Longue,1,0,,3,2434,178082,1702989151,07-14-2015,9:58:37,13:58:37,8,,5,2,8,,,Fleurs,,cat1_12.bmp,,,Longue,,,311,,,,,Fam,,,Familiarisation,,,,,,,,,PurpleHaze
familiarisation unifiée,8,1,Fleurs,"<?xml version=""1.0""?>\n<Clock xmlns:dt=""urn:schemas-microsoft-com:datatypes""><Description dt:dt=""string"">E-Prime Primary Realtime Clock</Description><StartTime><Timestamp dt:dt=""int"">0</Timestamp><DateUtc dt:dt=""string"">2015-07-14T13:58:37Z</DateUtc></StartTime><FrequencyChanges><FrequencyChange><Frequency dt:dt=""r8"">3312861</Frequency><Timestamp dt:dt=""r8"">5997290670</Timestamp><Current dt:dt=""r8"">0</Current><DateUtc dt:dt=""string"">2015-07-14T13:58:37Z</DateUtc></FrequencyChange></FrequencyChanges></Clock>\n",59.999,Longue,1,0,,3,2434,178082,1702989151,07-14-2015,9:58:37,13:58:37,9,,4,2,9,,,Fleurs,,cat1_3.bmp,,,Longue,,,292,,,,,Fam,,,Familiarisation,,,,,,,,,PurpleHaze
familiarisation unifiée,8,1,Fleurs,"<?xml version=""1.0""?>\n<Clock xmlns:dt=""urn:schemas-microsoft-com:datatypes""><Description dt:dt=""string"">E-Prime Primary Realtime Clock</Description><StartTime><Timestamp dt:dt=""int"">0</Timestamp><DateUtc dt:dt=""string"">2015-07-14T13:58:37Z</DateUtc></StartTime><FrequencyChanges><FrequencyChange><Frequency dt:dt=""r8"">3312861</Frequency><Timestamp dt:dt=""r8"">5997290670</Timestamp><Current dt:dt=""r8"">0</Current><DateUtc dt:dt=""string"">2015-07-14T13:58:37Z</DateUtc></FrequencyChange></FrequencyChanges></Clock>\n",59.999,Longue,1,0,,3,2434,178082,1702989151,07-14-2015,9:58:37,13:58:37,10,,1,2,10,,,Fleurs,,cat1_5.bmp,,,Longue,,,310,,,,,Fam,,,Familiarisation,,,,,,,,,PurpleHaze
familiarisation unifiée,8,1,Fleurs,"<?xml version=""1.0""?>\n<Clock xmlns:dt=""urn:schemas-microsoft-com:datatypes""><Description dt:dt=""string"">E-Prime Primary Realtime Clock</Description><StartTime><Timestamp dt:dt=""int"">0</Timestamp><DateUtc dt:dt=""string"">2015-07-14T13:58:37Z</DateUtc></StartTime><FrequencyChanges><FrequencyChange><Frequency dt:dt=""r8"">3312861</Frequency><Timestamp dt:dt=""r8"">5997290670</Timestamp><Current dt:dt=""r8"">0</Current><DateUtc dt:dt=""string"">2015-07-14T13:58:37Z</DateUtc></FrequencyChange></FrequencyChanges></Clock>\n",59.999,Longue,1,0,,3,2434,178082,1702989151,07-14-2015,9:58:37,13:58:37,11,,4,3,11,,,Fleurs,,cat1_3.bmp,,,Longue,,,311,,,,,Fam,,,Familiarisation,,,,,,,,,PurpleHaze
familiarisation unifiée,8,1,Fleurs,"<?xml version=""1.0""?>\n<Clock xmlns:dt=""urn:schemas-microsoft-com:datatypes""><Description dt:dt=""string"">E-Prime Primary Realtime Clock</Description><StartTime><Timestamp dt:dt=""int"">0</Timestamp><DateUtc dt:dt=""string"">2015-07-14T13:58:37Z</DateUtc></StartTime><FrequencyChanges><FrequencyChange><Frequency dt:dt=""r8"">3312861</Frequency><Timestamp dt:dt=""r8"">5997290670</Timestamp><Current dt:dt=""r8"">0</Current><DateUtc dt:dt=""string"">2015-07-14T13:58:37Z</DateUtc></FrequencyChange></FrequencyChanges></Clock>\n",59.999,Longue,1,0,,3,2434,178082,1702989151,07-14-2015,9:58:37,13:58:37,12,,5,3,12,,,Fleurs,,cat1_12.bmp,,,Longue,,,298,,,,,Fam,,,Familiarisation,,,,,,,,,PurpleHaze
familiarisation unifiée,8,1,Fleurs,"<?xml version=""1.0""?>\n<Clock xmlns:dt=""urn:schemas-microsoft-com:datatypes""><Description dt:dt=""string"">E-Prime Primary Realtime Clock</Description><StartTime><Timestamp dt:dt=""int"">0</Timestamp><DateUtc dt:dt=""string"">2015-07-14T13:58:37Z</DateUtc></StartTime><FrequencyChanges><FrequencyChange><Frequency dt:dt=""r8"">3312861</Frequency><Timestamp dt:dt=""r8"">5997290670</Timestamp><Current dt:dt=""r8"">0</Current><DateUtc dt:dt=""string"">2015-07-14T13:58:37Z</DateUtc></FrequencyChange></FrequencyChanges></Clock>\n",59.999,Longue,1,0,,3,2434,178082,1702989151,07-14-2015,9:58:37,13:58:37,13,,3,3,13,,,Fleurs,,cat1_14.bmp,,,Longue,,,310,,,,,Fam,,,Familiarisation,,,,,,,,,PurpleHaze
familiarisation unifiée,8,1,Fleurs,"<?xml version=""1.0""?>\n<Clock xmlns:dt=""urn:schemas-microsoft-com:datatypes""><Description dt:dt=""string"">E-Prime Primary Realtime Clock</Description><StartTime><Timestamp dt:dt=""int"">0</Timestamp><DateUtc dt:dt=""string"">2015-07-14T13:58:37Z</DateUtc></StartTime><FrequencyChanges><FrequencyChange><Frequency dt:dt=""r8"">3312861</Frequency><Timestamp dt:dt=""r8"">5997290670</Timestamp><Current dt:dt=""r8"">0</Current><DateUtc dt:dt=""string"">2015-07-14T13:58:37Z</DateUtc></FrequencyChange></FrequencyChanges></Clock>\n",59.999,Longue,1,0,,3,2434,178082,1702989151,07-14-2015,9:58:37,13:58:37,14,,2,3,14,,,Fleurs,,cat1_1.bmp,,,Longue,,,314,,,,,Fam,,,Familiarisation,,,,,,,,,PurpleHaze
familiarisation unifiée,8,1,Fleurs,"<?xml version=""1.0""?>\n<Clock xmlns:dt=""urn:schemas-microsoft-com:datatypes""><Description dt:dt=""string"">E-Prime Primary Realtime Clock</Description><StartTime><Timestamp dt:dt=""int"">0</Timestamp><DateUtc dt:dt=""string"">2015-07-14T13:58:37Z</DateUtc></StartTime><FrequencyChanges><FrequencyChange><Frequency dt:dt=""r8"">3312861</Frequency><Timestamp dt:dt=""r8"">5997290670</Timestamp><Current dt:dt=""r8"">0</Current><DateUtc dt:dt=""string"">2015-07-14T13:58:37Z</DateUtc></FrequencyChange></FrequencyChanges></Clock>\n",59.999,Longue,1,0,,3,2434,178082,1702989151,07-14-2015,9:58:37,13:58:37,15,,1,3,15,,,Fleurs,,cat1_5.bmp,,,Longue,,,294,,,,,Fam,,,Familiarisation,,,,,,,,,PurpleHaze
familiarisation unifiée,8,1,Fleurs,"<?xml version=""1.0""?>\n<Clock xmlns:dt=""urn:schemas-microsoft-com:datatypes""><Description dt:dt=""string"">E-Prime Primary Realtime Clock</Description><StartTime><Timestamp dt:dt=""int"">0</Timestamp><DateUtc dt:dt=""string"">2015-07-14T13:58:37Z</DateUtc></StartTime><FrequencyChanges><FrequencyChange><Frequency dt:dt=""r8"">3312861</Frequency><Timestamp dt:dt=""r8"">5997290670</Timestamp><Current dt:dt=""r8"">0</Current><DateUtc dt:dt=""string"">2015-07-14T13:58:37Z</DateUtc></FrequencyChange></FrequencyChanges></Clock>\n",59.999,Longue,1,0,,3,2434,178082,1702989151,07-14-2015,9:58:37,13:58:37,16,,,,,,Left,Fleurs,0.740963855,,cat1_15.bmp,PurpleHaze,Longue,PurpleHaze,123,,166,,,,Testproc,cat2_5.bmp,Alata,Test,,,,,,1,1,1,
familiarisation unifiée,8,1,Fleurs,"<?xml version=""1.0""?>\n<Clock xmlns:dt=""urn:schemas-microsoft-com:datatypes""><Description dt:dt=""string"">E-Prime Primary Realtime Clock</Description><StartTime><Timestamp dt:dt=""int"">0</Timestamp><DateUtc dt:dt=""string"">2015-07-14T13:58:37Z</DateUtc></StartTime><FrequencyChanges><FrequencyChange><Frequency dt:dt=""r8"">3312861</Frequency><Timestamp dt:dt=""r8"">5997290670</Timestamp><Current dt:dt=""r8"">0</Current><DateUtc dt:dt=""string"">2015-07-14T13:58:37Z</DateUtc></FrequencyChange></FrequencyChanges></Clock>\n",59.999,Longue,1,0,,3,2434,178082,1702989151,07-14-2015,9:58:37,13:58:37,17,,,,,,Left,Fleurs,1.2734375,,cat1_2.bmp,PurpleHaze,Longue,PurpleHaze,163,,128,,,,Testproc,cat2_9.bmp,Alata,Test,,,,,,4,1,2,
familiarisation unifiée,8,1,Fleurs,"<?xml version=""1.0""?>\n<Clock xmlns:dt=""urn:schemas-microsoft-com:datatypes""><Description dt:dt=""string"">E-Prime Primary Realtime Clock</Description><StartTime><Timestamp dt:dt=""int"">0</Timestamp><DateUtc dt:dt=""string"">2015-07-14T13:58:37Z</DateUtc></StartTime><FrequencyChanges><FrequencyChange><Frequency dt:dt=""r8"">3312861</Frequency><Timestamp dt:dt=""r8"">5997290670</Timestamp><Current dt:dt=""r8"">0</Current><DateUtc dt:dt=""string"">2015-07-14T13:58:37Z</DateUtc></FrequencyChange></FrequencyChanges></Clock>\n",59.999,Longue,1,0,,3,2434,178082,1702989151,07-14-2015,9:58:37,13:58:37,18,,,,,,Right,Fleurs,1.125,,cat2_5.bmp,Alata,Longue,PurpleHaze,144,,162,,,,Testproc,cat1_15.bmp,PurpleHaze,Test,,,,,,6,1,3,
familiarisation unifiée,8,1,Fleurs,"<?xml version=""1.0""?>\n<Clock xmlns:dt=""urn:schemas-microsoft-com:datatypes""><Description dt:dt=""string"">E-Prime Primary Realtime Clock</Description><StartTime><Timestamp dt:dt=""int"">0</Timestamp><DateUtc dt:dt=""string"">2015-07-14T13:58:37Z</DateUtc></StartTime><FrequencyChanges><FrequencyChange><Frequency dt:dt=""r8"">3312861</Frequency><Timestamp dt:dt=""r8"">5997290670</Timestamp><Current dt:dt=""r8"">0</Current><DateUtc dt:dt=""string"">2015-07-14T13:58:37Z</DateUtc></FrequencyChange></FrequencyChanges></Clock>\n",59.999,Longue,1,0,,3,2434,178082,1702989151,07-14-2015,9:58:37,13:58:37,19,,,,,,Right,Fleurs,1.1640625,,cat2_6.bmp,Alata,Longue,PurpleHaze,128,,149,,,,Testproc,cat1_11.bmp,PurpleHaze,Test,,,,,,8,1,4,
familiarisation unifiée,8,1,Fleurs,"<?xml version=""1.0""?>\n<Clock xmlns:dt=""urn:schemas-microsoft-com:datatypes""><Description dt:dt=""string"">E-Prime Primary Realtime Clock</Description><StartTime><Timestamp dt:dt=""int"">0</Timestamp><DateUtc dt:dt=""string"">2015-07-14T13:58:37Z</DateUtc></StartTime><FrequencyChanges><FrequencyChange><Frequency dt:dt=""r8"">3312861</Frequency><Timestamp dt:dt=""r8"">5997290670</Timestamp><Current dt:dt=""r8"">0</Current><DateUtc dt:dt=""string"">2015-07-14T13:58:37Z</DateUtc></FrequencyChange></FrequencyChanges></Clock>\n",59.999,Longue,1,0,,3,2434,178082,1702989151,07-14-2015,9:58:37,13:58:37,20,,,,,,Right,Fleurs,2.506024096,,cat2_9.bmp,Alata,Longue,PurpleHaze,83,,208,,,,Testproc,cat1_2.bmp,PurpleHaze,Test,,,,,,9,1,5,
familiarisation unifiée,8,1,Fleurs,"<?xml version=""1.0""?>\n<Clock xmlns:dt=""urn:schemas-microsoft-com:datatypes""><Description dt:dt=""string"">E-Prime Primary Realtime Clock</Description><StartTime><Timestamp dt:dt=""int"">0</Timestamp><DateUtc dt:dt=""string"">2015-07-14T13:58:37Z</DateUtc></StartTime><FrequencyChanges><FrequencyChange><Frequency dt:dt=""r8"">3312861</Frequency><Timestamp dt:dt=""r8"">5997290670</Timestamp><Current dt:dt=""r8"">0</Current><DateUtc dt:dt=""string"">2015-07-14T13:58:37Z</DateUtc></FrequencyChange></FrequencyChanges></Clock>\n",59.999,Longue,1,0,,3,2434,178082,1702989151,07-14-2015,9:58:37,13:58:37,21,,,,,,Left,Fleurs,0.892857143,,cat1_10.bmp,PurpleHaze,Longue,PurpleHaze,150,,168,,,,Testproc,cat2_1.bmp,Alata,Test,,,,,,2,1,6,
familiarisation unifiée,8,1,Fleurs,"<?xml version=""1.0""?>\n<Clock xmlns:dt=""urn:schemas-microsoft-com:datatypes""><Description dt:dt=""string"">E-Prime Primary Realtime Clock</Description><StartTime><Timestamp dt:dt=""int"">0</Timestamp><DateUtc dt:dt=""string"">2015-07-14T13:58:37Z</DateUtc></StartTime><FrequencyChanges><FrequencyChange><Frequency dt:dt=""r8"">3312861</Frequency><Timestamp dt:dt=""r8"">5997290670</Timestamp><Current dt:dt=""r8"">0</Current><DateUtc dt:dt=""string"">2015-07-14T13:58:37Z</DateUtc></FrequencyChange></FrequencyChanges></Clock>\n",59.999,Longue,1,0,,3,2434,178082,1702989151,07-14-2015,9:58:37,13:58:37,22,,,,,,Right,Fleurs,1.438016529,,cat2_2.bmp,Alata,Longue,PurpleHaze,121,,174,,,,Testproc,cat1_4.bmp,PurpleHaze,Test,,,,,,10,1,7,
familiarisation unifiée,8,1,Fleurs,"<?xml version=""1.0""?>\n<Clock xmlns:dt=""urn:schemas-microsoft-com:datatypes""><Description dt:dt=""string"">E-Prime Primary Realtime Clock</Description><StartTime><Timestamp dt:dt=""int"">0</Timestamp><DateUtc dt:dt=""string"">2015-07-14T13:58:37Z</DateUtc></StartTime><FrequencyChanges><FrequencyChange><Frequency dt:dt=""r8"">3312861</Frequency><Timestamp dt:dt=""r8"">5997290670</Timestamp><Current dt:dt=""r8"">0</Current><DateUtc dt:dt=""string"">2015-07-14T13:58:37Z</DateUtc></FrequencyChange></FrequencyChanges></Clock>\n",59.999,Longue,1,0,,3,2434,178082,1702989151,07-14-2015,9:58:37,13:58:37,23,,,,,,Right,Fleurs,0.534391534,,cat2_1.bmp,Alata,Longue,PurpleHaze,189,,101,,,,Testproc,cat1_10.bmp,PurpleHaze,Test,,,,,,7,1,8,
familiarisation unifiée,8,1,Fleurs,"<?xml version=""1.0""?>\n<Clock xmlns:dt=""urn:schemas-microsoft-com:datatypes""><Description dt:dt=""string"">E-Prime Primary Realtime Clock</Description><StartTime><Timestamp dt:dt=""int"">0</Timestamp><DateUtc dt:dt=""string"">2015-07-14T13:58:37Z</DateUtc></StartTime><FrequencyChanges><FrequencyChange><Frequency dt:dt=""r8"">3312861</Frequency><Timestamp dt:dt=""r8"">5997290670</Timestamp><Current dt:dt=""r8"">0</Current><DateUtc dt:dt=""string"">2015-07-14T13:58:37Z</DateUtc></FrequencyChange></FrequencyChanges></Clock>\n",59.999,Longue,1,0,,3,2434,178082,1702989151,07-14-2015,9:58:37,13:58:37,24,,,,,,Left,Fleurs,0.395604396,,cat1_4.bmp,PurpleHaze,Longue,PurpleHaze,72,,182,,,,Testproc,cat2_2.bmp,Alata,Test,,,,,,5,1,9,
familiarisation unifiée,8,1,Fleurs,"<?xml version=""1.0""?>\n<Clock xmlns:dt=""urn:schemas-microsoft-com:datatypes""><Description dt:dt=""string"">E-Prime Primary Realtime Clock</Description><StartTime><Timestamp dt:dt=""int"">0</Timestamp><DateUtc dt:dt=""string"">2015-07-14T13:58:37Z</DateUtc></StartTime><FrequencyChanges><FrequencyChange><Frequency dt:dt=""r8"">3312861</Frequency><Timestamp dt:dt=""r8"">5997290670</Timestamp><Current dt:dt=""r8"">0</Current><DateUtc dt:dt=""string"">2015-07-14T13:58:37Z</DateUtc></FrequencyChange></FrequencyChanges></Clock>\n",59.999,Longue,1,0,,3,2434,178082,1702989151,07-14-2015,9:58:37,13:58:37,25,,,,,,Left,Fleurs,1.11971831,,cat1_11.bmp,PurpleHaze,Longue,PurpleHaze,159,,142,,,,Testproc,cat2_6.bmp,Alata,Test,,,,,,3,1,10,
familiarisation unifiée,8,1,Fleurs,"<?xml version=""1.0""?>\n<Clock xmlns:dt=""urn:schemas-microsoft-com:datatypes""><Description dt:dt=""string"">E-Prime Primary Realtime Clock</Description><StartTime><Timestamp dt:dt=""int"">0</Timestamp><DateUtc dt:dt=""string"">2015-07-14T13:58:37Z</DateUtc></StartTime><FrequencyChanges><FrequencyChange><Frequency dt:dt=""r8"">3312861</Frequency><Timestamp dt:dt=""r8"">5997290670</Timestamp><Current dt:dt=""r8"">0</Current><DateUtc dt:dt=""string"">2015-07-14T13:58:37Z</DateUtc></FrequencyChange></FrequencyChanges></Clock>\n",59.999,Longue,1,0,,3,2434,178082,1702989151,07-14-2015,9:58:37,13:58:37,26,Novel,,,,Novel,,Fleurs,,cat2_15.bmp,,,Longue,PurpleHaze,,,,4,1,1,PrefTest,,,Preferences,0,,6,2204,181385,,,,
familiarisation unifiée,8,1,Fleurs,"<?xml version=""1.0""?>\n<Clock xmlns:dt=""urn:schemas-microsoft-com:datatypes""><Description dt:dt=""string"">E-Prime Primary Realtime Clock</Description><StartTime><Timestamp dt:dt=""int"">0</Timestamp><DateUtc dt:dt=""string"">2015-07-14T13:58:37Z</DateUtc></StartTime><FrequencyChanges><FrequencyChange><Frequency dt:dt=""r8"">3312861</Frequency><Timestamp dt:dt=""r8"">5997290670</Timestamp><Current dt:dt=""r8"">0</Current><DateUtc dt:dt=""string"">2015-07-14T13:58:37Z</DateUtc></FrequencyChange></FrequencyChanges></Clock>\n",59.999,Longue,1,0,,3,2434,178082,1702989151,07-14-2015,9:58:37,13:58:37,27,Familiar,,,,Novel,,Fleurs,,cat1_7.bmp,,,Longue,PurpleHaze,,,,2,1,2,PrefTest,,,Preferences,0,,8,1568,184049,,,,
familiarisation unifiée,8,1,Fleurs,"<?xml version=""1.0""?>\n<Clock xmlns:dt=""urn:schemas-microsoft-com:datatypes""><Description dt:dt=""string"">E-Prime Primary Realtime Clock</Description><StartTime><Timestamp dt:dt=""int"">0</Timestamp><DateUtc dt:dt=""string"">2015-07-14T13:58:37Z</DateUtc></StartTime><FrequencyChanges><FrequencyChange><Frequency dt:dt=""r8"">3312861</Frequency><Timestamp dt:dt=""r8"">5997290670</Timestamp><Current dt:dt=""r8"">0</Current><DateUtc dt:dt=""string"">2015-07-14T13:58:37Z</DateUtc></FrequencyChange></FrequencyChanges></Clock>\n",59.999,Longue,1,0,,3,2434,178082,1702989151,07-14-2015,9:58:37,13:58:37,28,Familiar,,,,Familiar,,Fleurs,,cat1_5.bmp,,,Longue,PurpleHaze,,,,1,1,3,PrefTest,,,Preferences,0,,4,1798,186929,,,,
familiarisation unifiée,8,1,Fleurs,"<?xml version=""1.0""?>\n<Clock xmlns:dt=""urn:schemas-microsoft-com:datatypes""><Description dt:dt=""string"">E-Prime Primary Realtime Clock</Description><StartTime><Timestamp dt:dt=""int"">0</Timestamp><DateUtc dt:dt=""string"">2015-07-14T13:58:37Z</DateUtc></StartTime><FrequencyChanges><FrequencyChange><Frequency dt:dt=""r8"">3312861</Frequency><Timestamp dt:dt=""r8"">5997290670</Timestamp><Current dt:dt=""r8"">0</Current><DateUtc dt:dt=""string"">2015-07-14T13:58:37Z</DateUtc></FrequencyChange></FrequencyChanges></Clock>\n",59.999,Longue,1,0,,3,2434,178082,1702989151,07-14-2015,9:58:37,13:58:37,29,Novel,,,,Familiar,,Fleurs,,cat2_5.bmp,,,Longue,PurpleHaze,,,,3,1,4,PrefTest,,,Preferences,0,,3,2666,190681,,,,
familiarisation unifiée,8,1,Fleurs,"<?xml version=""1.0""?>\n<Clock xmlns:dt=""urn:schemas-microsoft-com:datatypes""><Description dt:dt=""string"">E-Prime Primary Realtime Clock</Description><StartTime><Timestamp dt:dt=""int"">0</Timestamp><DateUtc dt:dt=""string"">2015-07-14T13:58:37Z</DateUtc></StartTime><FrequencyChanges><FrequencyChange><Frequency dt:dt=""r8"">3312861</Frequency><Timestamp dt:dt=""r8"">5997290670</Timestamp><Current dt:dt=""r8"">0</Current><DateUtc dt:dt=""string"">2015-07-14T13:58:37Z</DateUtc></FrequencyChange></FrequencyChanges></Clock>\n",59.999,Longue,1,0,,3,2434,178082,1702989151,07-14-2015,9:58:37,13:58:37,30,Unknown,,,,Novel,,Fleurs,,cat3_1.bmp,,,Longue,PurpleHaze,,,,5,1,5,PrefTest,,,Preferences,0,,2,2083,193865,,,,
familiarisation unifiée,8,2,Fractales,"<?xml version=""1.0""?>\n<Clock xmlns:dt=""urn:schemas-microsoft-com:datatypes""><Description dt:dt=""string"">E-Prime Primary Realtime Clock</Description><StartTime><Timestamp dt:dt=""int"">0</Timestamp><DateUtc dt:dt=""string"">2015-07-14T14:02:18Z</DateUtc></StartTime><FrequencyChanges><FrequencyChange><Frequency dt:dt=""r8"">3312861</Frequency><Timestamp dt:dt=""r8"">6729698573</Timestamp><Current dt:dt=""r8"">0</Current><DateUtc dt:dt=""string"">2015-07-14T14:02:18Z</DateUtc></FrequencyChange></FrequencyChanges></Clock>\n",59.999,Courte,1,0,,6,2978,112533,-1859606317,07-14-2015,10:02:18,14:02:18,1,,1,1,1,,,Fractales,,cat4_1.bmp,,,Courte,,,237,,,,,Fam,,,Familiarisation,,,,,,,,,Mandelbrot
familiarisation unifiée,8,2,Fractales,"<?xml version=""1.0""?>\n<Clock xmlns:dt=""urn:schemas-microsoft-com:datatypes""><Description dt:dt=""string"">E-Prime Primary Realtime Clock</Description><StartTime><Timestamp dt:dt=""int"">0</Timestamp><DateUtc dt:dt=""string"">2015-07-14T14:02:18Z</DateUtc></StartTime><FrequencyChanges><FrequencyChange><Frequency dt:dt=""r8"">3312861</Frequency><Timestamp dt:dt=""r8"">6729698573</Timestamp><Current dt:dt=""r8"">0</Current><DateUtc dt:dt=""string"">2015-07-14T14:02:18Z</DateUtc></FrequencyChange></FrequencyChanges></Clock>\n",59.999,Courte,1,0,,6,2978,112533,-1859606317,07-14-2015,10:02:18,14:02:18,2,,3,1,2,,,Fractales,,cat4_14.bmp,,,Courte,,,301,,,,,Fam,,,Familiarisation,,,,,,,,,Mandelbrot
